,signal_present,signal_type,trial_num,button_position,subject_number,responses,rt,correct_resp
0,1,60,0,right,std_1,1,8361.029,1
1,1,10,1,right,std_1,0,2669.968,0
2,1,10,2,right,std_1,0,1665.602,0
3,1,15,3,right,std_1,1,3066.9709999999995,1
4,0,0,4,right,std_1,0,2037.089,1
5,1,60,5,right,std_1,1,2014.614,1
6,0,0,6,right,std_1,0,2143.715,1
7,1,60,7,right,std_1,1,1693.4520000000002,1
8,1,25,8,right,std_1,1,1471.4979999999998,1
9,1,15,9,right,std_1,0,4473.923,0
10,0,0,10,right,std_1,0,1317.994,1
11,0,0,11,right,std_1,0,3990.297,1
12,0,0,12,right,std_1,0,1688.996,1
13,0,0,13,right,std_1,0,1373.74,1
14,1,15,14,right,std_1,0,1259.899,0
15,1,10,15,right,std_1,0,2528.1220000000008,0
16,0,0,16,right,std_1,0,1108.746,1
17,0,0,17,right,std_1,0,1753.665,1
18,0,0,18,right,std_1,0,1512.536,1
19,0,0,19,right,std_1,0,1572.2379999999998,1
20,1,25,20,right,std_1,0,1414.8370000000002,0
21,0,0,21,right,std_1,1,1918.031,0
22,0,0,22,right,std_1,1,1622.776,0
23,1,60,23,right,std_1,1,1395.661,1
24,1,60,24,right,std_1,1,1421.2079999999999,1
25,0,0,25,right,std_1,0,1714.045,1
26,1,60,26,right,std_1,1,1701.253,1
27,1,10,27,right,std_1,0,2303.456,0
28,1,60,28,right,std_1,1,1621.485,1
29,0,0,29,right,std_1,0,1723.2839999999999,1
30,1,15,30,right,std_1,0,808.8969999999998,0
31,1,25,31,right,std_1,0,2107.726,0
32,0,0,32,right,std_1,0,896.712,1
33,0,0,33,right,std_1,0,1143.251,1
34,0,0,34,right,std_1,0,1727.4029999999998,1
35,1,60,35,right,std_1,1,1469.323,1
36,1,25,36,right,std_1,0,1820.945,0
37,1,25,37,right,std_1,1,1769.361,1
38,0,0,38,right,std_1,0,1102.318,1
39,1,10,39,right,std_1,1,2985.0229999999997,1
40,0,0,40,right,std_1,0,1763.911,1
41,1,25,41,right,std_1,1,2574.457000000001,1
42,1,25,42,right,std_1,1,1453.639,1
43,1,60,43,right,std_1,1,1337.585,1
44,1,10,44,right,std_1,0,1711.17,0
45,1,25,45,right,std_1,0,1543.7399999999998,0
46,1,25,46,right,std_1,1,1780.993,1
47,0,0,47,right,std_1,0,1632.5400000000004,1
48,0,0,48,right,std_1,0,907.425,1
49,0,0,49,right,std_1,0,1602.759,1
50,1,10,50,right,std_1,0,2479.107,0
51,1,25,51,right,std_1,0,2334.043,0
52,0,0,52,right,std_1,0,900.033,1
53,0,0,53,right,std_1,0,981.4169999999999,1
54,1,25,54,right,std_1,1,1573.795,1
55,0,0,55,right,std_1,0,1751.862,1
56,0,0,56,right,std_1,0,956.207,1
57,0,0,57,right,std_1,0,969.682,1
58,0,0,58,right,std_1,0,974.219,1
59,1,25,59,right,std_1,0,1160.516,0
60,1,10,60,right,std_1,0,1221.673,0
61,1,15,61,right,std_1,0,1113.9589999999996,0
62,1,15,62,right,std_1,0,1074.515,0
63,1,15,63,right,std_1,0,1261.7179999999996,0
64,0,0,64,right,std_1,0,1065.294,1
65,1,10,65,right,std_1,0,1045.708,0
66,0,0,66,right,std_1,0,1524.2060000000001,1
67,0,0,67,right,std_1,0,1296.4160000000002,1
68,1,60,68,right,std_1,1,1723.954,1
69,0,0,69,right,std_1,0,1669.72,1
70,1,60,70,right,std_1,1,1811.206,1
71,0,0,71,right,std_1,0,1719.1729999999998,1
72,0,0,72,right,std_1,0,890.2460000000001,1
73,0,0,73,right,std_1,0,784.518,1
74,1,10,74,right,std_1,0,797.2610000000001,0
75,1,15,75,right,std_1,0,749.3639999999999,0
76,1,10,76,right,std_1,0,746.326,0
77,0,0,77,right,std_1,0,843.623,1
78,0,0,78,right,std_1,0,971.689,1
79,1,25,79,right,std_1,1,1959.5870000000002,1
80,0,0,80,right,std_1,0,1821.455,1
81,1,60,81,right,std_1,1,1788.682,1
82,0,0,82,right,std_1,0,1443.953,1
83,0,0,83,right,std_1,0,770.9939999999998,1
84,0,0,84,right,std_1,0,960.072,1
85,0,0,85,right,std_1,0,809.587,1
86,1,15,86,right,std_1,0,733.525,0
87,1,25,87,right,std_1,0,719.505,0
88,1,10,88,right,std_1,0,953.211,0
89,1,60,89,right,std_1,1,1658.99,1
90,0,0,90,right,std_1,0,1040.799,1
91,0,0,91,right,std_1,0,774.6669999999999,1
92,0,0,92,right,std_1,0,794.206,1
93,1,25,93,right,std_1,0,722.005,0
94,1,60,94,right,std_1,1,1899.625,1
95,1,10,95,right,std_1,0,1120.937,0
96,0,0,96,right,std_1,0,1014.8480000000001,1
97,0,0,97,right,std_1,0,1089.771,1
98,0,0,98,right,std_1,0,966.933,1
99,0,0,99,right,std_1,0,1472.8570000000002,1
100,0,0,100,right,std_1,0,1712.619,1
101,0,0,101,right,std_1,0,1119.754,1
102,1,25,102,right,std_1,1,1816.14,1
103,0,0,103,right,std_1,0,1583.261,1
104,1,10,104,right,std_1,0,1992.978,0
105,1,15,105,right,std_1,0,991.6489999999999,0
106,1,15,106,right,std_1,0,1185.19,0
107,0,0,107,right,std_1,0,966.6419999999999,1
108,1,15,108,right,std_1,1,1659.7089999999998,1
109,0,0,109,right,std_1,0,1317.4379999999999,1
110,0,0,110,right,std_1,0,985.556,1
111,1,10,111,right,std_1,0,948.57,0
112,0,0,112,right,std_1,0,904.793,1
113,0,0,113,right,std_1,0,1093.355,1
114,0,0,114,right,std_1,0,1276.6470000000004,1
115,0,0,115,right,std_1,0,1172.225,1
116,0,0,116,right,std_1,0,1013.175,1
117,1,25,117,right,std_1,1,2044.496,1
118,0,0,118,right,std_1,0,2482.766,1
119,1,60,119,right,std_1,0,622.3760000000002,0
120,0,0,120,right,std_1,0,965.742,1
121,0,0,121,right,std_1,0,1237.08,1
122,1,25,122,right,std_1,0,1152.144,0
123,0,0,123,right,std_1,0,705.564,1
124,1,60,124,right,std_1,1,1904.58,1
125,0,0,125,right,std_1,0,1307.333,1
126,1,10,126,right,std_1,0,10398.823,0
127,1,15,127,right,std_1,0,1410.8429999999998,0
128,0,0,128,right,std_1,0,982.023,1
129,0,0,129,right,std_1,0,3866.7270000000003,1
130,0,0,130,right,std_1,0,691.9760000000001,1
131,1,25,131,right,std_1,1,1417.878,1
132,1,60,132,right,std_1,1,1227.649,1
133,1,25,133,right,std_1,1,1409.53,1
134,0,0,134,right,std_1,0,1405.44,1
135,1,60,135,right,std_1,1,1658.615,1
136,0,0,136,right,std_1,0,1332.231,1
137,1,10,137,right,std_1,0,859.298,0
138,0,0,138,right,std_1,0,959.916,1
139,1,15,139,right,std_1,0,848.3989999999999,0
140,0,0,140,right,std_1,0,782.456,1
141,0,0,141,right,std_1,0,1029.469,1
142,0,0,142,right,std_1,0,753.6859999999998,1
143,0,0,143,right,std_1,0,1086.474,1
144,0,0,144,right,std_1,0,1115.946,1
145,0,0,145,right,std_1,0,1039.53,1
146,0,0,146,right,std_1,0,740.654,1
147,0,0,147,right,std_1,0,958.117,1
148,1,10,148,right,std_1,0,2088.922,0
149,1,15,149,right,std_1,0,375.19,0
150,1,25,150,right,std_1,0,1089.768,0
151,1,10,151,right,std_1,0,1886.983,0
152,1,60,152,right,std_1,1,2387.034,1
153,1,10,153,right,std_1,0,10485.97,0
154,1,15,154,right,std_1,0,949.0139999999999,0
155,0,0,155,right,std_1,0,1707.031,1
156,0,0,156,right,std_1,0,1590.769,1
157,0,0,157,right,std_1,0,1097.9489999999998,1
158,0,0,158,right,std_1,0,1217.5320000000004,1
159,1,25,159,right,std_1,1,1397.963,1
160,1,15,160,right,std_1,0,1509.15,0
161,0,0,161,right,std_1,0,987.178,1
162,1,60,162,right,std_1,1,1914.58,1
163,0,0,163,right,std_1,0,2060.071000000001,1
164,1,60,164,right,std_1,1,1540.213,1
165,0,0,165,right,std_1,0,1354.194,1
166,1,10,166,right,std_1,0,1444.477,0
167,0,0,167,right,std_1,0,1034.069,1
168,0,0,168,right,std_1,0,1060.674,1
169,1,15,169,right,std_1,0,876.4060000000002,0
170,0,0,170,right,std_1,0,911.679,1
171,0,0,171,right,std_1,0,739.702,1
172,0,0,172,right,std_1,0,1135.275,1
173,0,0,173,right,std_1,0,785.438,1
174,1,60,174,right,std_1,1,1590.318,1
175,0,0,175,right,std_1,0,1451.828,1
176,0,0,176,right,std_1,0,991.5369999999999,1
177,1,15,177,right,std_1,0,689.8720000000002,0
178,0,0,178,right,std_1,0,1339.447,1
179,1,25,179,right,std_1,0,914.53,0
180,1,25,180,right,std_1,1,1938.6729999999998,1
181,1,15,181,right,std_1,0,1492.7620000000002,0
182,1,10,182,right,std_1,0,910.822,0
183,0,0,183,right,std_1,0,993.8739999999999,1
184,0,0,184,right,std_1,0,957.908,1
185,1,15,185,right,std_1,0,749.8530000000001,0
186,1,10,186,right,std_1,0,958.553,0
187,1,60,187,right,std_1,1,1739.02,1
188,1,15,188,right,std_1,0,1281.708,0
189,0,0,189,right,std_1,0,963.0160000000001,1
190,0,0,190,right,std_1,0,738.1999999999998,1
191,1,10,191,right,std_1,0,746.408,0
192,1,10,192,right,std_1,0,591.757,0
193,1,15,193,right,std_1,0,696.722,0
194,1,60,194,right,std_1,1,1712.908,1
195,1,15,195,right,std_1,0,1231.068,0
196,0,0,196,right,std_1,0,925.928,1
197,1,60,197,right,std_1,0,691.3280000000002,0
198,1,15,198,right,std_1,1,1555.442,1
199,1,25,199,right,std_1,1,1430.2979999999998,1
