,signal_present,signal_type,trial_num,button_position,subject_number,responses,rt,correct_resp
0,1,60,0,left,std_11,1,8108.001,1
1,1,10,1,left,std_11,1,4843.669,1
2,1,10,2,left,std_11,0,2494.8379999999997,0
3,1,15,3,left,std_11,0,2327.917,0
4,0,0,4,left,std_11,0,4537.353,1
5,1,60,5,left,std_11,1,3563.9590000000007,1
6,0,0,6,left,std_11,0,1888.041,1
7,1,60,7,left,std_11,1,1322.237,1
8,1,25,8,left,std_11,1,1341.5439999999999,1
9,1,15,9,left,std_11,0,2901.325,0
10,0,0,10,left,std_11,0,2130.632,1
11,0,0,11,left,std_11,0,1937.574,1
12,0,0,12,left,std_11,0,1411.984,1
13,0,0,13,left,std_11,0,1370.56,1
14,1,15,14,left,std_11,0,2762.568,0
15,1,10,15,left,std_11,0,1110.278,0
16,0,0,16,left,std_11,0,1029.232,1
17,0,0,17,left,std_11,0,952.788,1
18,0,0,18,left,std_11,0,1344.6039999999996,1
19,0,0,19,left,std_11,0,1547.056,1
20,1,25,20,left,std_11,0,1387.0990000000004,0
21,0,0,21,left,std_11,0,1710.558,1
22,0,0,22,left,std_11,0,4872.945,1
23,1,60,23,left,std_11,1,1710.072,1
24,1,60,24,left,std_11,1,1467.479,1
25,0,0,25,left,std_11,0,2725.85,1
26,1,60,26,left,std_11,1,1421.745,1
27,1,10,27,left,std_11,0,1471.892,0
28,1,60,28,left,std_11,1,1501.029,1
29,0,0,29,left,std_11,0,1709.662,1
30,1,15,30,left,std_11,0,1339.467,0
31,1,25,31,left,std_11,1,2910.435,1
32,0,0,32,left,std_11,0,1054.697,1
33,0,0,33,left,std_11,0,1070.522,1
34,0,0,34,left,std_11,0,930.253,1
35,1,60,35,left,std_11,1,1423.665,1
36,1,25,36,left,std_11,0,1283.014,0
37,1,25,37,left,std_11,1,1473.214,1
38,0,0,38,left,std_11,0,1099.35,1
39,1,10,39,left,std_11,0,1979.322,0
40,0,0,40,left,std_11,0,1678.7520000000002,1
41,1,25,41,left,std_11,0,1064.201,0
42,1,25,42,left,std_11,1,2036.935,1
43,1,60,43,left,std_11,1,1124.555,1
44,1,10,44,left,std_11,0,1379.138,0
45,1,25,45,left,std_11,1,1647.4789999999996,1
46,1,25,46,left,std_11,1,4375.221,1
47,0,0,47,left,std_11,0,1420.066,1
48,0,0,48,left,std_11,0,1263.103,1
49,0,0,49,left,std_11,0,1231.072,1
50,1,10,50,left,std_11,1,1744.7179999999998,1
51,1,25,51,left,std_11,0,1706.161,0
52,0,0,52,left,std_11,0,1433.2959999999996,1
53,0,0,53,left,std_11,0,1108.837,1
54,1,25,54,left,std_11,0,2505.829,0
55,0,0,55,left,std_11,0,1012.801,1
56,0,0,56,left,std_11,0,1095.828,1
57,0,0,57,left,std_11,0,718.263,1
58,0,0,58,left,std_11,0,1040.813,1
59,1,25,59,left,std_11,0,1463.217,0
60,1,10,60,left,std_11,0,1066.521,0
61,1,15,61,left,std_11,0,1100.3670000000004,0
62,1,15,62,left,std_11,0,873.2739999999999,0
63,1,15,63,left,std_11,0,792.2470000000002,0
64,0,0,64,left,std_11,0,1160.496,1
65,1,10,65,left,std_11,0,840.492,0
66,0,0,66,left,std_11,0,765.362,1
67,0,0,67,left,std_11,0,1083.698,1
68,1,60,68,left,std_11,1,1595.9,1
69,0,0,69,left,std_11,0,1420.912,1
70,1,60,70,left,std_11,1,1457.664,1
71,0,0,71,left,std_11,0,1067.9260000000002,1
72,0,0,72,left,std_11,0,1240.2340000000004,1
73,0,0,73,left,std_11,0,927.908,1
74,1,10,74,left,std_11,0,1395.8680000000004,0
75,1,15,75,left,std_11,0,1082.519,0
76,1,10,76,left,std_11,0,978.826,0
77,0,0,77,left,std_11,0,814.6099999999999,1
78,0,0,78,left,std_11,0,976.4910000000001,1
79,1,25,79,left,std_11,1,1745.4019999999996,1
80,0,0,80,left,std_11,0,1122.349,1
81,1,60,81,left,std_11,1,1320.9550000000004,1
82,0,0,82,left,std_11,0,1054.0739999999998,1
83,0,0,83,left,std_11,0,860.54,1
84,0,0,84,left,std_11,0,3505.8779999999997,1
85,0,0,85,left,std_11,0,1383.708,1
86,1,15,86,left,std_11,0,1986.4089999999999,0
87,1,25,87,left,std_11,1,2855.188,1
88,1,10,88,left,std_11,0,1231.6589999999999,0
89,1,60,89,left,std_11,1,1300.856,1
90,0,0,90,left,std_11,0,1056.516,1
91,0,0,91,left,std_11,0,1043.392,1
92,0,0,92,left,std_11,0,1012.7560000000001,1
93,1,25,93,left,std_11,1,1910.5439999999999,1
94,1,60,94,left,std_11,1,1472.4160000000002,1
95,1,10,95,left,std_11,0,1396.61,0
96,0,0,96,left,std_11,0,991.441,1
97,0,0,97,left,std_11,0,1146.4540000000004,1
98,0,0,98,left,std_11,0,1907.503,1
99,0,0,99,left,std_11,0,2496.184,1
100,0,0,100,left,std_11,0,1908.841,1
101,0,0,101,left,std_11,0,2855.673,1
102,1,25,102,left,std_11,0,163543.99800000002,0
103,0,0,103,left,std_11,0,3018.798,1
104,1,10,104,left,std_11,0,2524.283,0
105,1,15,105,left,std_11,0,1200.0819999999999,0
106,1,15,106,left,std_11,0,1265.654,0
107,0,0,107,left,std_11,0,930.193,1
108,1,15,108,left,std_11,0,1553.855,0
109,0,0,109,left,std_11,0,1085.481,1
110,0,0,110,left,std_11,0,957.831,1
111,1,10,111,left,std_11,0,2098.172,0
112,0,0,112,left,std_11,0,921.133,1
113,0,0,113,left,std_11,0,848.878,1
114,0,0,114,left,std_11,0,679.3059999999998,1
115,0,0,115,left,std_11,0,677.2819999999999,1
116,0,0,116,left,std_11,0,819.765,1
117,1,25,117,left,std_11,0,711.998,0
118,0,0,118,left,std_11,0,772.7689999999999,1
119,1,60,119,left,std_11,1,1383.1270000000002,1
120,0,0,120,left,std_11,0,1173.171,1
121,0,0,121,left,std_11,0,836.3910000000001,1
122,1,25,122,left,std_11,0,949.758,0
123,0,0,123,left,std_11,0,640.436,1
124,1,60,124,left,std_11,0,671.672,0
125,0,0,125,left,std_11,0,1136.408,1
126,1,10,126,left,std_11,0,1042.182,0
127,1,15,127,left,std_11,0,932.6139999999999,0
128,0,0,128,left,std_11,0,2071.762,1
129,0,0,129,left,std_11,0,1363.4279999999999,1
130,0,0,130,left,std_11,0,1365.5949999999998,1
131,1,25,131,left,std_11,0,1756.545,0
132,1,60,132,left,std_11,1,1310.8390000000004,1
133,1,25,133,left,std_11,1,1164.225,1
134,0,0,134,left,std_11,0,1108.318,1
135,1,60,135,left,std_11,1,1658.02,1
136,0,0,136,left,std_11,0,839.5129999999998,1
137,1,10,137,left,std_11,0,1232.279,0
138,0,0,138,left,std_11,0,1604.688,1
139,1,15,139,left,std_11,0,1012.863,0
140,0,0,140,left,std_11,0,1152.369,1
141,0,0,141,left,std_11,0,3538.778,1
142,0,0,142,left,std_11,0,3834.4240000000004,1
143,0,0,143,left,std_11,0,1326.9360000000001,1
144,0,0,144,left,std_11,0,1789.5749999999996,1
145,0,0,145,left,std_11,0,1219.138,1
146,0,0,146,left,std_11,1,1587.227,0
147,0,0,147,left,std_11,0,1119.3210000000001,1
148,1,10,148,left,std_11,0,785.7030000000002,0
149,1,15,149,left,std_11,0,947.694,0
150,1,25,150,left,std_11,1,1476.556,1
151,1,10,151,left,std_11,0,1144.69,0
152,1,60,152,left,std_11,1,1443.999,1
153,1,10,153,left,std_11,0,1301.287,0
154,1,15,154,left,std_11,0,1935.714,0
155,0,0,155,left,std_11,0,1147.17,1
156,0,0,156,left,std_11,0,1401.346,1
157,0,0,157,left,std_11,0,1029.015,1
158,0,0,158,left,std_11,0,818.451,1
159,1,25,159,left,std_11,1,1440.759,1
160,1,15,160,left,std_11,0,1133.568,0
161,0,0,161,left,std_11,0,1026.109,1
162,1,60,162,left,std_11,1,1311.588,1
163,0,0,163,left,std_11,0,1302.119,1
164,1,60,164,left,std_11,1,1485.844,1
165,0,0,165,left,std_11,0,945.656,1
166,1,10,166,left,std_11,0,836.645,0
167,0,0,167,left,std_11,0,776.753,1
168,0,0,168,left,std_11,0,1323.213,1
169,1,15,169,left,std_11,0,815.2489999999999,0
170,0,0,170,left,std_11,0,1188.893,1
171,0,0,171,left,std_11,0,674.4599999999998,1
172,0,0,172,left,std_11,0,757.5809999999999,1
173,0,0,173,left,std_11,0,777.293,1
174,1,60,174,left,std_11,0,747.798,0
175,0,0,175,left,std_11,0,764.235,1
176,0,0,176,left,std_11,0,1071.379,1
177,1,15,177,left,std_11,0,977.7080000000001,0
178,0,0,178,left,std_11,0,978.085,1
179,1,25,179,left,std_11,1,1758.385,1
180,1,25,180,left,std_11,0,1651.5220000000002,0
181,1,15,181,left,std_11,0,1075.752,0
182,1,10,182,left,std_11,0,926.709,0
183,0,0,183,left,std_11,0,945.4580000000001,1
184,0,0,184,left,std_11,0,1183.343,1
185,1,15,185,left,std_11,0,1270.347,0
186,1,10,186,left,std_11,0,1346.953,0
187,1,60,187,left,std_11,1,1618.5449999999996,1
188,1,15,188,left,std_11,0,1061.112,0
189,0,0,189,left,std_11,0,1585.351,1
190,0,0,190,left,std_11,0,1163.7160000000001,1
191,1,10,191,left,std_11,0,1180.093,0
192,1,10,192,left,std_11,0,1068.853,0
193,1,15,193,left,std_11,0,1260.472,0
194,1,60,194,left,std_11,1,1688.131,1
195,1,15,195,left,std_11,0,1345.866,0
196,0,0,196,left,std_11,0,873.6,1
197,1,60,197,left,std_11,1,1592.6560000000004,1
198,1,15,198,left,std_11,0,1508.473,0
199,1,25,199,left,std_11,0,938.146,0
