,signal_present,signal_type,trial_num,button_position,subject_number,responses,rt,correct_resp
0,1,60,0,right,std_10,1,29662.242000000002,1
1,1,10,1,right,std_10,1,30415.6,1
2,1,10,2,right,std_10,0,6010.221,0
3,1,15,3,right,std_10,0,7911.259,0
4,0,0,4,right,std_10,0,11226.181,1
5,1,60,5,right,std_10,1,1654.72,1
6,0,0,6,right,std_10,0,7863.514,1
7,1,60,7,right,std_10,1,1790.987,1
8,1,25,8,right,std_10,1,1295.102,1
9,1,15,9,right,std_10,1,7160.124,1
10,0,0,10,right,std_10,0,10947.151000000002,1
11,0,0,11,right,std_10,0,3405.691,1
12,0,0,12,right,std_10,0,3470.9959999999996,1
13,0,0,13,right,std_10,0,7858.5459999999985,1
14,1,15,14,right,std_10,1,3729.435,1
15,1,10,15,right,std_10,0,6696.991999999999,0
16,0,0,16,right,std_10,0,8382.735999999999,1
17,0,0,17,right,std_10,0,2211.843,1
18,0,0,18,right,std_10,0,14872.711,1
19,0,0,19,right,std_10,0,1099.751,1
20,1,25,20,right,std_10,1,2690.522,1
21,0,0,21,right,std_10,1,6968.0340000000015,0
22,0,0,22,right,std_10,1,8145.120999999999,0
23,1,60,23,right,std_10,1,1082.4499999999996,1
24,1,60,24,right,std_10,1,959.94,1
25,0,0,25,right,std_10,0,5479.326,1
26,1,60,26,right,std_10,1,1833.27,1
27,1,10,27,right,std_10,0,12109.131000000001,0
28,1,60,28,right,std_10,1,1737.2479999999996,1
29,0,0,29,right,std_10,0,10857.75,1
30,1,15,30,right,std_10,1,7118.018,1
31,1,25,31,right,std_10,1,1143.306,1
32,0,0,32,right,std_10,1,7791.709,0
33,0,0,33,right,std_10,1,6500.91,0
34,0,0,34,right,std_10,0,5573.009,1
35,1,60,35,right,std_10,1,1935.7920000000001,1
36,1,25,36,right,std_10,1,3666.771,1
37,1,25,37,right,std_10,1,1238.936,1
38,0,0,38,right,std_10,0,2348.6710000000003,1
39,1,10,39,right,std_10,0,10499.426000000001,0
40,0,0,40,right,std_10,0,5011.920999999999,1
41,1,25,41,right,std_10,1,2475.137,1
42,1,25,42,right,std_10,0,11941.874,0
43,1,60,43,right,std_10,1,1604.685,1
44,1,10,44,right,std_10,1,2752.2700000000004,1
45,1,25,45,right,std_10,0,2765.51,0
46,1,25,46,right,std_10,1,2767.973,1
47,0,0,47,right,std_10,0,2473.486,1
48,0,0,48,right,std_10,0,2968.5890000000004,1
49,0,0,49,right,std_10,0,10379.771,1
50,1,10,50,right,std_10,0,10439.688,0
51,1,25,51,right,std_10,1,6086.398,1
52,0,0,52,right,std_10,0,3537.2560000000008,1
53,0,0,53,right,std_10,0,5410.402999999998,1
54,1,25,54,right,std_10,1,1820.494,1
55,0,0,55,right,std_10,0,5210.002,1
56,0,0,56,right,std_10,0,3691.4240000000004,1
57,0,0,57,right,std_10,0,2186.96,1
58,0,0,58,right,std_10,1,8049.896000000002,0
59,1,25,59,right,std_10,1,3244.836,1
60,1,10,60,right,std_10,0,2414.23,0
61,1,15,61,right,std_10,0,2394.554,0
62,1,15,62,right,std_10,0,2234.1890000000008,0
63,1,15,63,right,std_10,1,3468.557,1
64,0,0,64,right,std_10,1,5309.951,0
65,1,10,65,right,std_10,0,3028.327,0
66,0,0,66,right,std_10,1,7389.732,0
67,0,0,67,right,std_10,0,3030.656,1
68,1,60,68,right,std_10,1,2252.078,1
69,0,0,69,right,std_10,0,4843.772000000001,1
70,1,60,70,right,std_10,1,1847.959,1
71,0,0,71,right,std_10,0,2833.766,1
72,0,0,72,right,std_10,0,11787.726,1
73,0,0,73,right,std_10,0,5456.4180000000015,1
74,1,10,74,right,std_10,1,11484.847,1
75,1,15,75,right,std_10,1,6904.043000000001,1
76,1,10,76,right,std_10,0,2514.286,0
77,0,0,77,right,std_10,0,3534.093,1
78,0,0,78,right,std_10,0,9103.325,1
79,1,25,79,right,std_10,1,1756.042,1
80,0,0,80,right,std_10,1,1868.8220000000001,0
81,1,60,81,right,std_10,1,1404.6770000000001,1
82,0,0,82,right,std_10,0,6169.491,1
83,0,0,83,right,std_10,0,7196.272,1
84,0,0,84,right,std_10,1,2098.508,0
85,0,0,85,right,std_10,1,5249.579000000001,0
86,1,15,86,right,std_10,1,2673.65,1
87,1,25,87,right,std_10,1,2509.505,1
88,1,10,88,right,std_10,0,3525.9770000000008,0
89,1,60,89,right,std_10,1,2068.6479999999997,1
90,0,0,90,right,std_10,1,8959.705,0
91,0,0,91,right,std_10,1,6567.856,0
92,0,0,92,right,std_10,0,5826.7080000000005,1
93,1,25,93,right,std_10,1,2504.211,1
94,1,60,94,right,std_10,1,1239.3319999999999,1
95,1,10,95,right,std_10,0,1830.562,0
96,0,0,96,right,std_10,0,3251.034,1
97,0,0,97,right,std_10,0,5183.605,1
98,0,0,98,right,std_10,0,3957.704,1
99,0,0,99,right,std_10,0,7680.7930000000015,1
100,0,0,100,right,std_10,0,4449.657,1
101,0,0,101,right,std_10,0,4537.662,1
102,1,25,102,right,std_10,1,1416.0479999999998,1
103,0,0,103,right,std_10,0,2186.8430000000008,1
104,1,10,104,right,std_10,0,3688.639,0
105,1,15,105,right,std_10,0,2049.052,0
106,1,15,106,right,std_10,0,2392.619,0
107,0,0,107,right,std_10,0,2110.831,1
108,1,15,108,right,std_10,1,4671.923,1
109,0,0,109,right,std_10,0,4207.59,1
110,0,0,110,right,std_10,1,2934.5359999999996,0
111,1,10,111,right,std_10,1,1639.303,1
112,0,0,112,right,std_10,0,1605.405,1
113,0,0,113,right,std_10,1,2966.5359999999996,0
114,0,0,114,right,std_10,0,2341.087,1
115,0,0,115,right,std_10,1,3399.169000000001,0
116,0,0,116,right,std_10,0,2291.251,1
117,1,25,117,right,std_10,1,1466.2779999999998,1
118,0,0,118,right,std_10,0,17919.124,1
119,1,60,119,right,std_10,1,1528.03,1
120,0,0,120,right,std_10,0,1504.5,1
121,0,0,121,right,std_10,0,1063.339,1
122,1,25,122,right,std_10,1,4204.194,1
123,0,0,123,right,std_10,0,1416.871,1
124,1,60,124,right,std_10,1,1751.771,1
125,0,0,125,right,std_10,0,2361.183,1
126,1,10,126,right,std_10,0,1087.9430000000002,0
127,1,15,127,right,std_10,0,1067.188,0
128,0,0,128,right,std_10,0,1052.366,1
129,0,0,129,right,std_10,0,1431.888,1
130,0,0,130,right,std_10,0,1735.005,1
131,1,25,131,right,std_10,1,1525.531,1
132,1,60,132,right,std_10,1,816.4739999999999,1
133,1,25,133,right,std_10,1,1283.333,1
134,0,0,134,right,std_10,0,1588.4029999999998,1
135,1,60,135,right,std_10,1,1405.868,1
136,0,0,136,right,std_10,0,1734.6960000000001,1
137,1,10,137,right,std_10,0,949.523,0
138,0,0,138,right,std_10,1,1510.929,0
139,1,15,139,right,std_10,0,1140.881,0
140,0,0,140,right,std_10,0,843.6469999999999,1
141,0,0,141,right,std_10,0,1418.515,1
142,0,0,142,right,std_10,0,989.207,1
143,0,0,143,right,std_10,0,923.996,1
144,0,0,144,right,std_10,0,7258.505,1
145,0,0,145,right,std_10,0,1529.235,1
146,0,0,146,right,std_10,1,1699.8249999999996,0
147,0,0,147,right,std_10,1,10307.792,0
148,1,10,148,right,std_10,0,1921.378,0
149,1,15,149,right,std_10,1,1154.455,1
150,1,25,150,right,std_10,1,1762.354,1
151,1,10,151,right,std_10,0,3728.055,0
152,1,60,152,right,std_10,1,1572.989,1
153,1,10,153,right,std_10,0,2723.241,0
154,1,15,154,right,std_10,1,4455.045999999999,1
155,0,0,155,right,std_10,1,3901.128,0
156,0,0,156,right,std_10,0,1763.188,1
157,0,0,157,right,std_10,0,4690.451999999998,1
158,0,0,158,right,std_10,0,1132.309,1
159,1,25,159,right,std_10,0,6589.974,0
160,1,15,160,right,std_10,1,3815.408,1
161,0,0,161,right,std_10,0,2577.29,1
162,1,60,162,right,std_10,1,1622.648,1
163,0,0,163,right,std_10,1,6888.566,0
164,1,60,164,right,std_10,1,1447.471,1
165,0,0,165,right,std_10,0,3259.8259999999996,1
166,1,10,166,right,std_10,0,1328.345,0
167,0,0,167,right,std_10,0,1984.66,1
168,0,0,168,right,std_10,0,1354.685,1
169,1,15,169,right,std_10,0,1675.836,0
170,0,0,170,right,std_10,0,3316.2909999999997,1
171,0,0,171,right,std_10,0,2642.567,1
172,0,0,172,right,std_10,0,3731.738,1
173,0,0,173,right,std_10,0,2093.39,1
174,1,60,174,right,std_10,1,1510.509,1
175,0,0,175,right,std_10,0,1696.481,1
176,0,0,176,right,std_10,0,2058.985,1
177,1,15,177,right,std_10,0,2311.396,0
178,0,0,178,right,std_10,0,1135.504,1
179,1,25,179,right,std_10,1,1992.706,1
180,1,25,180,right,std_10,1,1492.816,1
181,1,15,181,right,std_10,0,2494.686,0
182,1,10,182,right,std_10,0,3052.4959999999996,0
183,0,0,183,right,std_10,0,1368.1160000000002,1
184,0,0,184,right,std_10,0,1455.2659999999996,1
185,1,15,185,right,std_10,1,1985.994,1
186,1,10,186,right,std_10,0,2976.257,0
187,1,60,187,right,std_10,1,1814.241,1
188,1,15,188,right,std_10,1,2298.714,1
189,0,0,189,right,std_10,0,3348.312,1
190,0,0,190,right,std_10,0,2444.095,1
191,1,10,191,right,std_10,0,3344.605,0
192,1,10,192,right,std_10,0,1477.5520000000001,0
193,1,15,193,right,std_10,0,1361.1629999999998,0
194,1,60,194,right,std_10,1,1720.2020000000002,1
195,1,15,195,right,std_10,0,3021.239,0
196,0,0,196,right,std_10,0,3414.7909999999997,1
197,1,60,197,right,std_10,1,1561.92,1
198,1,15,198,right,std_10,1,1418.399,1
199,1,25,199,right,std_10,1,1056.656,1
