,signal_present,signal_type,trial_num,button_position,subject_number,responses,rt,correct_resp
0,1,60,0,right,std_21,1,3890.236,1
1,1,10,1,right,std_21,1,1398.11,1
2,1,10,2,right,std_21,0,8622.08,0
3,1,15,3,right,std_21,1,2097.426,1
4,0,0,4,right,std_21,1,2320.388,0
5,1,60,5,right,std_21,1,2125.2430000000004,1
6,0,0,6,right,std_21,0,2201.9350000000004,1
7,1,60,7,right,std_21,1,1226.466,1
8,1,25,8,right,std_21,1,1088.8319999999999,1
9,1,15,9,right,std_21,1,2344.22,1
10,0,0,10,right,std_21,0,2560.828,1
11,0,0,11,right,std_21,0,3082.43,1
12,0,0,12,right,std_21,0,19564.576,1
13,0,0,13,right,std_21,0,1126.3529999999996,1
14,1,15,14,right,std_21,1,3470.005,1
15,1,10,15,right,std_21,0,1588.0020000000002,0
16,0,0,16,right,std_21,1,2548.118,0
17,0,0,17,right,std_21,0,1464.094,1
18,0,0,18,right,std_21,1,3848.6420000000003,0
19,0,0,19,right,std_21,0,1566.7820000000002,1
20,1,25,20,right,std_21,1,1993.116,1
21,0,0,21,right,std_21,0,2361.846,1
22,0,0,22,right,std_21,1,1894.473,0
23,1,60,23,right,std_21,1,1167.144,1
24,1,60,24,right,std_21,1,1246.813,1
25,0,0,25,right,std_21,1,2554.254,0
26,1,60,26,right,std_21,1,1368.3909999999996,1
27,1,10,27,right,std_21,1,4350.1190000000015,1
28,1,60,28,right,std_21,1,1454.352,1
29,0,0,29,right,std_21,0,3020.621,1
30,1,15,30,right,std_21,1,4009.089,1
31,1,25,31,right,std_21,1,1385.039,1
32,0,0,32,right,std_21,0,1296.148,1
33,0,0,33,right,std_21,0,2387.557,1
34,0,0,34,right,std_21,0,1212.355,1
35,1,60,35,right,std_21,1,1161.4450000000004,1
36,1,25,36,right,std_21,1,2388.175,1
37,1,25,37,right,std_21,1,1451.901,1
38,0,0,38,right,std_21,0,2355.148,1
39,1,10,39,right,std_21,1,2240.0350000000008,1
40,0,0,40,right,std_21,0,1751.0179999999998,1
41,1,25,41,right,std_21,1,1837.283,1
42,1,25,42,right,std_21,1,1455.455,1
43,1,60,43,right,std_21,1,1358.011,1
44,1,10,44,right,std_21,0,2677.75,0
45,1,25,45,right,std_21,1,3437.9590000000007,1
46,1,25,46,right,std_21,1,1539.8470000000002,1
47,0,0,47,right,std_21,0,4059.0040000000004,1
48,0,0,48,right,std_21,0,3204.9809999999998,1
49,0,0,49,right,std_21,1,3195.573,0
50,1,10,50,right,std_21,0,2854.65,0
51,1,25,51,right,std_21,1,4081.469,1
52,0,0,52,right,std_21,0,2276.545,1
53,0,0,53,right,std_21,0,1508.894,1
54,1,25,54,right,std_21,1,3587.4770000000003,1
55,0,0,55,right,std_21,0,1975.65,1
56,0,0,56,right,std_21,0,1403.144,1
57,0,0,57,right,std_21,0,630.64,1
58,0,0,58,right,std_21,0,882.091,1
59,1,25,59,right,std_21,0,572.3770000000002,0
60,1,10,60,right,std_21,0,843.8299999999998,0
61,1,15,61,right,std_21,0,568.295,0
62,1,15,62,right,std_21,0,541.5060000000002,0
63,1,15,63,right,std_21,0,915.286,0
64,0,0,64,right,std_21,0,1335.9170000000001,1
65,1,10,65,right,std_21,0,667.455,0
66,0,0,66,right,std_21,0,771.752,1
67,0,0,67,right,std_21,0,616.7769999999999,1
68,1,60,68,right,std_21,1,1568.4460000000001,1
69,0,0,69,right,std_21,0,2012.8139999999999,1
70,1,60,70,right,std_21,1,1563.9370000000001,1
71,0,0,71,right,std_21,0,1519.649,1
72,0,0,72,right,std_21,0,1751.1460000000004,1
73,0,0,73,right,std_21,1,2030.604,0
74,1,10,74,right,std_21,0,1473.0710000000001,0
75,1,15,75,right,std_21,1,1763.795,1
76,1,10,76,right,std_21,1,2223.359,1
77,0,0,77,right,std_21,1,4373.185,0
78,0,0,78,right,std_21,0,1765.7079999999999,1
79,1,25,79,right,std_21,1,1318.646,1
80,0,0,80,right,std_21,1,2722.153,0
81,1,60,81,right,std_21,1,1549.993,1
82,0,0,82,right,std_21,0,2080.061,1
83,0,0,83,right,std_21,0,2865.668,1
84,0,0,84,right,std_21,1,1974.885,0
85,0,0,85,right,std_21,1,1784.249,0
86,1,15,86,right,std_21,1,1027.01,1
87,1,25,87,right,std_21,1,4145.82,1
88,1,10,88,right,std_21,1,1456.908,1
89,1,60,89,right,std_21,1,1731.0479999999998,1
90,0,0,90,right,std_21,0,1606.1129999999996,1
91,0,0,91,right,std_21,0,712.696,1
92,0,0,92,right,std_21,0,934.664,1
93,1,25,93,right,std_21,0,561.903,0
94,1,60,94,right,std_21,1,1410.868,1
95,1,10,95,right,std_21,0,1138.376,0
96,0,0,96,right,std_21,0,2343.96,1
97,0,0,97,right,std_21,1,1938.792,0
98,0,0,98,right,std_21,1,2034.657,0
99,0,0,99,right,std_21,0,3237.735,1
100,0,0,100,right,std_21,0,4724.6359999999995,1
101,0,0,101,right,std_21,0,1686.6650000000004,1
102,1,25,102,right,std_21,0,1626.136,0
103,0,0,103,right,std_21,0,2921.844,1
104,1,10,104,right,std_21,0,1234.132,0
105,1,15,105,right,std_21,0,886.0830000000001,0
106,1,15,106,right,std_21,0,1995.34,0
107,0,0,107,right,std_21,0,1595.723,1
108,1,15,108,right,std_21,1,1522.99,1
109,0,0,109,right,std_21,1,1356.87,0
110,0,0,110,right,std_21,1,1220.092,0
111,1,10,111,right,std_21,0,1207.463,0
112,0,0,112,right,std_21,0,874.9449999999998,1
113,0,0,113,right,std_21,0,1022.77,1
114,0,0,114,right,std_21,0,881.432,1
115,0,0,115,right,std_21,0,2942.792,1
116,0,0,116,right,std_21,0,1394.56,1
117,1,25,117,right,std_21,1,1833.3229999999999,1
118,0,0,118,right,std_21,0,2364.074,1
119,1,60,119,right,std_21,1,1353.4520000000002,1
120,0,0,120,right,std_21,0,1007.954,1
121,0,0,121,right,std_21,0,1035.513,1
122,1,25,122,right,std_21,0,858.548,0
123,0,0,123,right,std_21,0,1916.99,1
124,1,60,124,right,std_21,1,1558.626,1
125,0,0,125,right,std_21,0,5632.918000000001,1
126,1,10,126,right,std_21,0,2283.927,0
127,1,15,127,right,std_21,0,1387.83,0
128,0,0,128,right,std_21,0,3508.3259999999996,1
129,0,0,129,right,std_21,0,1027.244,1
130,0,0,130,right,std_21,0,1485.609,1
131,1,25,131,right,std_21,1,2926.6220000000003,1
132,1,60,132,right,std_21,1,953.478,1
133,1,25,133,right,std_21,1,1027.491,1
134,0,0,134,right,std_21,0,2709.447,1
135,1,60,135,right,std_21,1,1453.069,1
136,0,0,136,right,std_21,0,2183.8089999999997,1
137,1,10,137,right,std_21,1,1866.269,1
138,0,0,138,right,std_21,1,1603.3670000000002,0
139,1,15,139,right,std_21,1,1475.859,1
140,0,0,140,right,std_21,0,1845.2420000000002,1
141,0,0,141,right,std_21,1,2575.4790000000007,0
142,0,0,142,right,std_21,0,5036.8139999999985,1
143,0,0,143,right,std_21,1,2384.299,0
144,0,0,144,right,std_21,0,1411.965,1
145,0,0,145,right,std_21,0,2008.401,1
146,0,0,146,right,std_21,1,2723.407,0
147,0,0,147,right,std_21,0,1905.566,1
148,1,10,148,right,std_21,0,1103.03,0
149,1,15,149,right,std_21,1,1605.539,1
150,1,25,150,right,std_21,1,1949.135,1
151,1,10,151,right,std_21,1,1240.212,1
152,1,60,152,right,std_21,1,907.758,1
153,1,10,153,right,std_21,0,1409.2060000000001,0
154,1,15,154,right,std_21,0,2664.401,0
155,0,0,155,right,std_21,0,4943.306,1
156,0,0,156,right,std_21,0,2682.0609999999997,1
157,0,0,157,right,std_21,1,2457.792,0
158,0,0,158,right,std_21,0,1089.016,1
159,1,25,159,right,std_21,1,1584.6570000000002,1
160,1,15,160,right,std_21,0,2520.0840000000007,0
161,0,0,161,right,std_21,0,1420.865,1
162,1,60,162,right,std_21,1,1558.715,1
163,0,0,163,right,std_21,0,2036.101,1
164,1,60,164,right,std_21,1,1114.762,1
165,0,0,165,right,std_21,0,3240.063,1
166,1,10,166,right,std_21,1,3460.4300000000007,1
167,0,0,167,right,std_21,0,1246.458,1
168,0,0,168,right,std_21,0,2170.413,1
169,1,15,169,right,std_21,1,1615.091,1
170,0,0,170,right,std_21,0,4071.842,1
171,0,0,171,right,std_21,0,1242.288,1
172,0,0,172,right,std_21,0,3427.0240000000003,1
173,0,0,173,right,std_21,0,1347.369,1
174,1,60,174,right,std_21,1,1473.135,1
175,0,0,175,right,std_21,0,1242.1819999999998,1
176,0,0,176,right,std_21,0,1326.9550000000004,1
177,1,15,177,right,std_21,0,832.29,0
178,0,0,178,right,std_21,0,1183.046,1
179,1,25,179,right,std_21,1,1650.429,1
180,1,25,180,right,std_21,1,1303.628,1
181,1,15,181,right,std_21,0,5081.74,0
182,1,10,182,right,std_21,1,1374.5710000000001,1
183,0,0,183,right,std_21,1,1464.799,0
184,0,0,184,right,std_21,0,1810.632,1
185,1,15,185,right,std_21,0,1016.437,0
186,1,10,186,right,std_21,0,1442.09,0
187,1,60,187,right,std_21,1,1879.911,1
188,1,15,188,right,std_21,0,1007.272,0
189,0,0,189,right,std_21,0,1871.674,1
190,0,0,190,right,std_21,0,965.635,1
191,1,10,191,right,std_21,0,6.433000000000002,0
192,1,10,192,right,std_21,0,5.69,0
193,1,15,193,right,std_21,0,5.359,0
194,1,60,194,right,std_21,0,6.0329999999999995,0
195,1,15,195,right,std_21,0,1409.537,0
196,0,0,196,right,std_21,0,1036.435,1
197,1,60,197,right,std_21,1,1323.8470000000002,1
198,1,15,198,right,std_21,1,1960.485,1
199,1,25,199,right,std_21,1,1005.856,1
