,signal_present,signal_type,trial_num,button_position,subject_number,responses,rt,correct_resp
0,1,60,0,right,std_19,1,25403.617,1
1,1,10,1,right,std_19,0,5331.937,0
2,1,10,2,right,std_19,0,4140.543,0
3,1,15,3,right,std_19,0,3863.6940000000004,0
4,0,0,4,right,std_19,0,3985.869,1
5,1,60,5,right,std_19,1,1802.965,1
6,0,0,6,right,std_19,0,3376.131,1
7,1,60,7,right,std_19,1,1638.322,1
8,1,25,8,right,std_19,1,1577.794,1
9,1,15,9,right,std_19,1,2371.278,1
10,0,0,10,right,std_19,0,2204.9610000000002,1
11,0,0,11,right,std_19,0,4294.120999999999,1
12,0,0,12,right,std_19,0,3464.303000000001,1
13,0,0,13,right,std_19,0,4605.505999999999,1
14,1,15,14,right,std_19,1,5903.661999999998,1
15,1,10,15,right,std_19,0,2542.7270000000008,0
16,0,0,16,right,std_19,0,3537.532,1
17,0,0,17,right,std_19,0,2175.513,1
18,0,0,18,right,std_19,0,4469.429,1
19,0,0,19,right,std_19,0,2625.902,1
20,1,25,20,right,std_19,1,3167.638000000001,1
21,0,0,21,right,std_19,0,4025.629,1
22,0,0,22,right,std_19,0,4890.375,1
23,1,60,23,right,std_19,1,1386.386,1
24,1,60,24,right,std_19,1,1294.846,1
25,0,0,25,right,std_19,0,3841.006,1
26,1,60,26,right,std_19,1,1620.9479999999999,1
27,1,10,27,right,std_19,0,1440.547,0
28,1,60,28,right,std_19,1,1160.5890000000004,1
29,0,0,29,right,std_19,0,1515.638,1
30,1,15,30,right,std_19,0,1760.418,0
31,1,25,31,right,std_19,1,1676.75,1
32,0,0,32,right,std_19,1,2522.399,0
33,0,0,33,right,std_19,0,2400.0229999999997,1
34,0,0,34,right,std_19,0,1793.364,1
35,1,60,35,right,std_19,1,1577.6029999999998,1
36,1,25,36,right,std_19,1,1955.148,1
37,1,25,37,right,std_19,1,1934.596,1
38,0,0,38,right,std_19,0,1660.23,1
39,1,10,39,right,std_19,0,2142.277,0
40,0,0,40,right,std_19,0,2098.5389999999998,1
41,1,25,41,right,std_19,1,1844.726,1
42,1,25,42,right,std_19,1,2688.878,1
43,1,60,43,right,std_19,1,1674.3310000000001,1
44,1,10,44,right,std_19,0,1719.129,0
45,1,25,45,right,std_19,0,1192.289,0
46,1,25,46,right,std_19,1,2501.538,1
47,0,0,47,right,std_19,0,1168.022,1
48,0,0,48,right,std_19,0,1172.7510000000002,1
49,0,0,49,right,std_19,0,798.197,1
50,1,10,50,right,std_19,0,1240.808,0
51,1,25,51,right,std_19,1,1769.836,1
52,0,0,52,right,std_19,0,1447.021,1
53,0,0,53,right,std_19,0,1170.106,1
54,1,25,54,right,std_19,1,1941.995,1
55,0,0,55,right,std_19,0,1656.0770000000002,1
56,0,0,56,right,std_19,1,1682.9920000000002,0
57,0,0,57,right,std_19,0,1098.323,1
58,0,0,58,right,std_19,1,1021.773,0
59,1,25,59,right,std_19,0,1094.999,0
60,1,10,60,right,std_19,0,1553.057,0
61,1,15,61,right,std_19,0,1387.761,0
62,1,15,62,right,std_19,0,1717.5549999999996,0
63,1,15,63,right,std_19,0,1267.474,0
64,0,0,64,right,std_19,0,1354.457,1
65,1,10,65,right,std_19,0,1978.4129999999998,0
66,0,0,66,right,std_19,1,2963.897,0
67,0,0,67,right,std_19,0,1043.874,1
68,1,60,68,right,std_19,1,1483.16,1
69,0,0,69,right,std_19,0,1656.8670000000004,1
70,1,60,70,right,std_19,1,1234.934,1
71,0,0,71,right,std_19,0,1098.981,1
72,0,0,72,right,std_19,0,870.4939999999999,1
73,0,0,73,right,std_19,0,722.995,1
74,1,10,74,right,std_19,0,938.633,0
75,1,15,75,right,std_19,1,1644.007,1
76,1,10,76,right,std_19,0,984.252,0
77,0,0,77,right,std_19,0,1273.308,1
78,0,0,78,right,std_19,0,863.72,1
79,1,25,79,right,std_19,0,811.433,0
80,0,0,80,right,std_19,1,2298.2870000000007,0
81,1,60,81,right,std_19,1,1608.803,1
82,0,0,82,right,std_19,0,1072.833,1
83,0,0,83,right,std_19,0,1821.047,1
84,0,0,84,right,std_19,0,2594.361000000001,1
85,0,0,85,right,std_19,0,1688.3020000000001,1
86,1,15,86,right,std_19,1,3811.6079999999997,1
87,1,25,87,right,std_19,0,1708.9360000000001,0
88,1,10,88,right,std_19,0,2454.098,0
89,1,60,89,right,std_19,1,1784.174,1
90,0,0,90,right,std_19,0,1829.294,1
91,0,0,91,right,std_19,0,2324.895,1
92,0,0,92,right,std_19,0,1883.645,1
93,1,25,93,right,std_19,1,2161.686,1
94,1,60,94,right,std_19,1,2044.336,1
95,1,10,95,right,std_19,0,1320.888,0
96,0,0,96,right,std_19,0,1646.3719999999996,1
97,0,0,97,right,std_19,0,1966.183,1
98,0,0,98,right,std_19,0,1036.339,1
99,0,0,99,right,std_19,0,1182.471,1
100,0,0,100,right,std_19,0,1597.45,1
101,0,0,101,right,std_19,0,1016.1230000000003,1
102,1,25,102,right,std_19,1,2776.788,1
103,0,0,103,right,std_19,0,1281.493,1
104,1,10,104,right,std_19,0,1595.912,0
105,1,15,105,right,std_19,0,936.085,0
106,1,15,106,right,std_19,0,1421.406,0
107,0,0,107,right,std_19,0,1879.9720000000002,1
108,1,15,108,right,std_19,0,1135.152,0
109,0,0,109,right,std_19,0,1025.0739999999998,1
110,0,0,110,right,std_19,0,1688.552,1
111,1,10,111,right,std_19,0,1096.702,0
112,0,0,112,right,std_19,0,1662.0600000000004,1
113,0,0,113,right,std_19,0,1573.279,1
114,0,0,114,right,std_19,0,1707.1419999999996,1
115,0,0,115,right,std_19,0,1456.504,1
116,0,0,116,right,std_19,0,1041.5449999999996,1
117,1,25,117,right,std_19,1,2882.565,1
118,0,0,118,right,std_19,0,1149.894,1
119,1,60,119,right,std_19,1,1314.335,1
120,0,0,120,right,std_19,0,1315.332,1
121,0,0,121,right,std_19,0,1302.7230000000004,1
122,1,25,122,right,std_19,0,887.5980000000001,0
123,0,0,123,right,std_19,0,1216.2679999999998,1
124,1,60,124,right,std_19,1,1503.61,1
125,0,0,125,right,std_19,0,1080.597,1
126,1,10,126,right,std_19,0,1320.914,0
127,1,15,127,right,std_19,0,1015.983,0
128,0,0,128,right,std_19,0,875.1529999999998,1
129,0,0,129,right,std_19,0,1002.282,1
130,0,0,130,right,std_19,0,984.954,1
131,1,25,131,right,std_19,1,1473.684,1
132,1,60,132,right,std_19,1,2888.176,1
133,1,25,133,right,std_19,1,1690.928,1
134,0,0,134,right,std_19,0,1365.4489999999996,1
135,1,60,135,right,std_19,1,1522.184,1
136,0,0,136,right,std_19,0,925.974,1
137,1,10,137,right,std_19,0,1226.512,0
138,0,0,138,right,std_19,1,2869.3109999999997,0
139,1,15,139,right,std_19,0,1056.232,0
140,0,0,140,right,std_19,0,900.039,1
141,0,0,141,right,std_19,0,737.3199999999998,1
142,0,0,142,right,std_19,0,672.1239999999999,1
143,0,0,143,right,std_19,0,736.2510000000001,1
144,0,0,144,right,std_19,0,997.6439999999999,1
145,0,0,145,right,std_19,0,918.512,1
146,0,0,146,right,std_19,0,1411.7420000000002,1
147,0,0,147,right,std_19,0,814.341,1
148,1,10,148,right,std_19,0,2610.234000000001,0
149,1,15,149,right,std_19,0,904.788,0
150,1,25,150,right,std_19,0,902.648,0
151,1,10,151,right,std_19,0,1250.542,0
152,1,60,152,right,std_19,1,1653.418,1
153,1,10,153,right,std_19,0,1215.868,0
154,1,15,154,right,std_19,0,1057.712,0
155,0,0,155,right,std_19,0,1501.112,1
156,0,0,156,right,std_19,0,1377.15,1
157,0,0,157,right,std_19,1,2271.074,0
158,0,0,158,right,std_19,0,1032.356,1
159,1,25,159,right,std_19,1,2170.377,1
160,1,15,160,right,std_19,0,1134.144,0
161,0,0,161,right,std_19,0,864.195,1
162,1,60,162,right,std_19,1,1439.3590000000004,1
163,0,0,163,right,std_19,0,784.1619999999999,1
164,1,60,164,right,std_19,1,1546.197,1
165,0,0,165,right,std_19,0,866.0160000000001,1
166,1,10,166,right,std_19,0,886.587,0
167,0,0,167,right,std_19,0,822.9680000000002,1
168,0,0,168,right,std_19,0,1192.472,1
169,1,15,169,right,std_19,0,987.284,0
170,0,0,170,right,std_19,0,1284.502,1
171,0,0,171,right,std_19,0,1916.4379999999999,1
172,0,0,172,right,std_19,0,1324.336,1
173,0,0,173,right,std_19,0,3430.2209999999995,1
174,1,60,174,right,std_19,1,1550.4009999999996,1
175,0,0,175,right,std_19,0,1693.7779999999998,1
176,0,0,176,right,std_19,0,7949.982,1
177,1,15,177,right,std_19,0,5600.460999999999,0
178,0,0,178,right,std_19,0,1461.2779999999998,1
179,1,25,179,right,std_19,0,1278.116,0
180,1,25,180,right,std_19,0,1553.265,0
181,1,15,181,right,std_19,0,852.773,0
182,1,10,182,right,std_19,0,1305.255,0
183,0,0,183,right,std_19,0,1010.138,1
184,0,0,184,right,std_19,0,722.3589999999998,1
185,1,15,185,right,std_19,1,2006.631,1
186,1,10,186,right,std_19,0,1282.585,0
187,1,60,187,right,std_19,0,1131.722,0
188,1,15,188,right,std_19,0,1478.49,0
189,0,0,189,right,std_19,0,1110.5210000000004,1
190,0,0,190,right,std_19,0,907.029,1
191,1,10,191,right,std_19,0,968.75,0
192,1,10,192,right,std_19,0,808.0079999999998,0
193,1,15,193,right,std_19,0,714.5060000000001,0
194,1,60,194,right,std_19,0,774.051,0
195,1,15,195,right,std_19,0,1077.8829999999996,0
196,0,0,196,right,std_19,0,867.8969999999999,1
197,1,60,197,right,std_19,1,1402.3829999999998,1
198,1,15,198,right,std_19,0,863.5690000000002,0
199,1,25,199,right,std_19,1,1940.741,1
