,Unnamed: 0,trialResp.keys,trialResp.corr,trialResp.rt,loop.thisRepN,loop.thisTrialN,loop.thisN,loop.thisIndex,loop.ran,loop.order,imagefile,corrAns,angle,participant,session,date,expName,psychopyVersion,frameRate
0,0,d,0,2.748999834,1,0,100,88,1,99,i40_150.jpg,s,150,Subject1,1,2019-10-16_10h06.54.797,MentalRotationFinal,3.1.2,60
1,1,d,0,2.835000038,1,0,100,98,1,99,i47_100.jpg,s,100,Subject1,1,2019-10-16_10h06.54.797,MentalRotationFinal,3.1.2,60
2,2,d,1,3.720999956,1,0,100,39,1,99,i18_150_R.jpg,d,150,Subject1,1,2019-10-16_10h06.54.797,MentalRotationFinal,3.1.2,60
3,3,d,1,3.268999815,1,0,100,12,1,99,i6_50_R.jpg,d,50,Subject1,1,2019-10-16_10h06.54.797,MentalRotationFinal,3.1.2,60
4,4,d,1,4.566999912,1,0,100,52,1,99,i24_150_R.jpg,d,150,Subject1,1,2019-10-16_10h06.54.797,MentalRotationFinal,3.1.2,60
5,5,s,1,3.019000053,1,0,100,74,1,99,i34_150.jpg,s,150,Subject1,1,2019-10-16_10h06.54.797,MentalRotationFinal,3.1.2,60
6,6,d,1,2.472000122,1,0,100,95,1,99,i44_100_R.jpg,d,100,Subject1,1,2019-10-16_10h06.54.797,MentalRotationFinal,3.1.2,60
7,7,d,1,2.536999941,1,0,100,33,1,99,i15_150_R.jpg,d,150,Subject1,1,2019-10-16_10h06.54.797,MentalRotationFinal,3.1.2,60
8,8,s,1,3.019000053,1,0,100,24,1,99,i11_100.jpg,s,100,Subject1,1,2019-10-16_10h06.54.797,MentalRotationFinal,3.1.2,60
9,9,d,1,2.552000046,1,0,100,3,1,99,i2_50_R.jpg,d,50,Subject1,1,2019-10-16_10h06.54.797,MentalRotationFinal,3.1.2,60
10,10,s,1,3.203000069,1,0,100,99,1,99,i48_100.jpg,s,100,Subject1,1,2019-10-16_10h06.54.797,MentalRotationFinal,3.1.2,60
11,11,d,0,2.569000006,1,0,100,81,1,99,i37_150.jpg,s,150,Subject1,1,2019-10-16_10h06.54.797,MentalRotationFinal,3.1.2,60
12,12,d,0,2.002000093,1,0,100,54,1,99,i25_50.jpg,s,50,Subject1,1,2019-10-16_10h06.54.797,MentalRotationFinal,3.1.2,60
13,13,s,1,2.16899991,1,0,100,15,1,99,i7_100.jpg,s,100,Subject1,1,2019-10-16_10h06.54.797,MentalRotationFinal,3.1.2,60
14,14,s,1,2.56799984,1,0,100,49,1,99,i23_50.jpg,s,50,Subject1,1,2019-10-16_10h06.54.797,MentalRotationFinal,3.1.2,60
15,15,d,1,1.819000006,1,0,100,44,1,99,i20_150_R.jpg,d,150,Subject1,1,2019-10-16_10h06.54.797,MentalRotationFinal,3.1.2,60
16,16,d,1,1.937000036,1,0,100,28,1,99,i13_150_R.jpg,d,150,Subject1,1,2019-10-16_10h06.54.797,MentalRotationFinal,3.1.2,60
17,17,d,1,1.670000076,1,0,100,31,1,99,i14_150_R.jpg,d,150,Subject1,1,2019-10-16_10h06.54.797,MentalRotationFinal,3.1.2,60
18,18,d,1,1.601999998,1,0,100,48,1,99,i22_150_R.jpg,d,150,Subject1,1,2019-10-16_10h06.54.797,MentalRotationFinal,3.1.2,60
19,19,s,1,2.470000029,1,0,100,36,1,99,i17_50.jpg,s,50,Subject1,1,2019-10-16_10h06.54.797,MentalRotationFinal,3.1.2,60
20,20,s,1,2.902000189,1,0,100,70,1,99,i32_150.jpg,s,150,Subject1,1,2019-10-16_10h06.54.797,MentalRotationFinal,3.1.2,60
21,21,d,1,2.701999903,1,0,100,57,1,99,i26_150_R.jpg,d,150,Subject1,1,2019-10-16_10h06.54.797,MentalRotationFinal,3.1.2,60
22,22,s,1,3.703000069,1,0,100,72,1,99,i33_150.jpg,s,150,Subject1,1,2019-10-16_10h06.54.797,MentalRotationFinal,3.1.2,60
23,23,d,1,1.236000061,1,0,100,82,1,99,i38_100_R.jpg,d,100,Subject1,1,2019-10-16_10h06.54.797,MentalRotationFinal,3.1.2,60
24,24,s,1,2.053000212,1,0,100,2,1,99,i1_100.jpg,s,100,Subject1,1,2019-10-16_10h06.54.797,MentalRotationFinal,3.1.2,60
25,25,s,1,1.753000021,1,0,100,6,1,99,i3_100.jpg,s,100,Subject1,1,2019-10-16_10h06.54.797,MentalRotationFinal,3.1.2,60
26,26,d,1,1.885999918,1,0,100,71,1,99,i33_100_R.jpg,d,100,Subject1,1,2019-10-16_10h06.54.797,MentalRotationFinal,3.1.2,60
27,27,s,1,3.450999975,1,0,100,83,1,99,i38_150.jpg,s,150,Subject1,1,2019-10-16_10h06.54.797,MentalRotationFinal,3.1.2,60
28,28,d,0,1.305999994,1,0,100,8,1,99,i4_100.jpg,s,100,Subject1,1,2019-10-16_10h06.54.797,MentalRotationFinal,3.1.2,60
29,29,d,1,1.6340000630000002,1,0,100,30,1,99,i14_50_R.jpg,d,50,Subject1,1,2019-10-16_10h06.54.797,MentalRotationFinal,3.1.2,60
30,30,d,1,2.903999805,1,0,100,5,1,99,i3_50_R.jpg,d,50,Subject1,1,2019-10-16_10h06.54.797,MentalRotationFinal,3.1.2,60
31,31,s,1,2.7039999960000003,1,0,100,34,1,99,i16_50.jpg,s,50,Subject1,1,2019-10-16_10h06.54.797,MentalRotationFinal,3.1.2,60
32,32,d,1,1.47300005,1,0,100,1,1,99,i1_50_R.jpg,d,50,Subject1,1,2019-10-16_10h06.54.797,MentalRotationFinal,3.1.2,60
33,33,d,1,2.952000141,1,0,100,80,1,99,i37_100_R.jpg,d,100,Subject1,1,2019-10-16_10h06.54.797,MentalRotationFinal,3.1.2,60
34,34,s,1,1.888000011,1,0,100,17,1,99,i8_100.jpg,s,100,Subject1,1,2019-10-16_10h06.54.797,MentalRotationFinal,3.1.2,60
35,35,d,1,1.870000124,1,0,100,50,1,99,i23_150_R.jpg,d,150,Subject1,1,2019-10-16_10h06.54.797,MentalRotationFinal,3.1.2,60
36,36,d,0,2.286999941,1,0,100,56,1,99,i26_50.jpg,s,50,Subject1,1,2019-10-16_10h06.54.797,MentalRotationFinal,3.1.2,60
37,37,d,1,2.8689999580000003,1,0,100,14,1,99,i7_50_R.jpg,d,50,Subject1,1,2019-10-16_10h06.54.797,MentalRotationFinal,3.1.2,60
38,38,d,1,1.937000036,1,0,100,7,1,99,i4_50_R.jpg,d,50,Subject1,1,2019-10-16_10h06.54.797,MentalRotationFinal,3.1.2,60
39,39,d,1,1.671000004,1,0,100,67,1,99,i31_100_R.jpg,d,100,Subject1,1,2019-10-16_10h06.54.797,MentalRotationFinal,3.1.2,60
40,40,s,1,2.335999966,1,0,100,65,1,99,i30_50.jpg,s,50,Subject1,1,2019-10-16_10h06.54.797,MentalRotationFinal,3.1.2,60
41,41,s,1,1.7860000130000002,1,0,100,41,1,99,i19_50.jpg,s,50,Subject1,1,2019-10-16_10h06.54.797,MentalRotationFinal,3.1.2,60
42,42,d,1,1.721999884,1,0,100,16,1,99,i8_50_R.jpg,d,50,Subject1,1,2019-10-16_10h06.54.797,MentalRotationFinal,3.1.2,60
43,43,d,1,1.888000011,1,0,100,10,1,99,i5_50_R.jpg,d,50,Subject1,1,2019-10-16_10h06.54.797,MentalRotationFinal,3.1.2,60
44,44,d,1,1.4700000290000002,1,0,100,46,1,99,i21_150_R.jpg,d,150,Subject1,1,2019-10-16_10h06.54.797,MentalRotationFinal,3.1.2,60
45,45,s,1,2.304000139,1,0,100,61,1,99,i28_150.jpg,s,150,Subject1,1,2019-10-16_10h06.54.797,MentalRotationFinal,3.1.2,60
46,46,s,1,2.569999933,1,0,100,0,1,99,i1_0.jpg,s,0,Subject1,1,2019-10-16_10h06.54.797,MentalRotationFinal,3.1.2,60
47,47,d,1,1.851999998,1,0,100,73,1,99,i34_100_R.jpg,d,100,Subject1,1,2019-10-16_10h06.54.797,MentalRotationFinal,3.1.2,60
48,48,d,1,1.236000061,1,0,100,27,1,99,i13_50_R.jpg,d,50,Subject1,1,2019-10-16_10h06.54.797,MentalRotationFinal,3.1.2,60
49,49,s,1,4.45299983,1,0,100,79,1,99,i36_150.jpg,s,150,Subject1,1,2019-10-16_10h06.54.797,MentalRotationFinal,3.1.2,60
50,50,d,1,1.703999996,1,0,100,55,1,99,i25_150_R.jpg,d,150,Subject1,1,2019-10-16_10h06.54.797,MentalRotationFinal,3.1.2,60
51,51,s,1,1.920000076,1,0,100,18,1,99,i9_0.jpg,s,0,Subject1,1,2019-10-16_10h06.54.797,MentalRotationFinal,3.1.2,60
52,52,d,1,0.902999878,1,0,100,32,1,99,i15_50_R.jpg,d,50,Subject1,1,2019-10-16_10h06.54.797,MentalRotationFinal,3.1.2,60
53,53,d,0,1.919999838,1,0,100,20,1,99,i9_100.jpg,s,100,Subject1,1,2019-10-16_10h06.54.797,MentalRotationFinal,3.1.2,60
54,54,d,0,0.854000092,1,0,100,11,1,99,i5_100.jpg,s,100,Subject1,1,2019-10-16_10h06.54.797,MentalRotationFinal,3.1.2,60
55,55,d,1,2.402999878,1,0,100,42,1,99,i19_150_R.jpg,d,150,Subject1,1,2019-10-16_10h06.54.797,MentalRotationFinal,3.1.2,60
56,56,s,1,1.421000004,1,0,100,9,1,99,i5_0.jpg,s,0,Subject1,1,2019-10-16_10h06.54.797,MentalRotationFinal,3.1.2,60
57,57,s,1,2.437999964,1,0,100,51,1,99,i24_50.jpg,s,50,Subject1,1,2019-10-16_10h06.54.797,MentalRotationFinal,3.1.2,60
58,58,d,1,2.536999941,1,0,100,78,1,99,i36_100_R.jpg,d,100,Subject1,1,2019-10-16_10h06.54.797,MentalRotationFinal,3.1.2,60
59,59,d,1,1.621000051,1,0,100,93,1,99,i43_100_R.jpg,d,100,Subject1,1,2019-10-16_10h06.54.797,MentalRotationFinal,3.1.2,60
60,60,d,1,1.085999966,1,0,100,25,1,99,i12_50_R.jpg,d,50,Subject1,1,2019-10-16_10h06.54.797,MentalRotationFinal,3.1.2,60
61,61,s,1,1.5870001319999998,1,0,100,43,1,99,i20_50.jpg,s,50,Subject1,1,2019-10-16_10h06.54.797,MentalRotationFinal,3.1.2,60
62,62,d,1,3.487999916,1,0,100,96,1,99,i45_100_R.jpg,d,100,Subject1,1,2019-10-16_10h06.54.797,MentalRotationFinal,3.1.2,60
63,63,d,1,1.4700000290000002,1,0,100,23,1,99,i11_50_R.jpg,d,50,Subject1,1,2019-10-16_10h06.54.797,MentalRotationFinal,3.1.2,60
64,64,s,1,1.93599987,1,0,100,45,1,99,i21_50.jpg,s,50,Subject1,1,2019-10-16_10h06.54.797,MentalRotationFinal,3.1.2,60
65,65,d,1,1.353000164,1,0,100,35,1,99,i16_150_R.jpg,d,150,Subject1,1,2019-10-16_10h06.54.797,MentalRotationFinal,3.1.2,60
66,66,s,1,0.8359999659999999,1,0,100,53,1,99,i25_0.jpg,s,0,Subject1,1,2019-10-16_10h06.54.797,MentalRotationFinal,3.1.2,60
67,67,d,1,1.703000069,1,0,100,89,1,99,i41_100_R.jpg,d,100,Subject1,1,2019-10-16_10h06.54.797,MentalRotationFinal,3.1.2,60
68,68,s,1,2.42200017,1,0,100,58,1,99,i27_50.jpg,s,50,Subject1,1,2019-10-16_10h06.54.797,MentalRotationFinal,3.1.2,60
69,69,d,1,1.137000084,1,0,100,85,1,99,i39_100_R.jpg,d,100,Subject1,1,2019-10-16_10h06.54.797,MentalRotationFinal,3.1.2,60
70,70,d,1,1.319999933,1,0,100,19,1,99,i9_50_R.jpg,d,50,Subject1,1,2019-10-16_10h06.54.797,MentalRotationFinal,3.1.2,60
71,71,d,0,2.653000116,1,0,100,77,1,99,i35_150.jpg,s,150,Subject1,1,2019-10-16_10h06.54.797,MentalRotationFinal,3.1.2,60
72,72,s,1,1.1549999709999998,1,0,100,94,1,99,i44_0.jpg,s,0,Subject1,1,2019-10-16_10h06.54.797,MentalRotationFinal,3.1.2,60
73,73,s,1,4.353999853,1,0,100,97,1,99,i46_100.jpg,s,100,Subject1,1,2019-10-16_10h06.54.797,MentalRotationFinal,3.1.2,60
74,74,d,0,3.2869999410000004,1,0,100,86,1,99,i39_150.jpg,s,150,Subject1,1,2019-10-16_10h06.54.797,MentalRotationFinal,3.1.2,60
75,75,d,1,3.154000044,1,0,100,87,1,99,i40_100_R.jpg,d,100,Subject1,1,2019-10-16_10h06.54.797,MentalRotationFinal,3.1.2,60
76,76,s,1,1.585999966,1,0,100,22,1,99,i10_100.jpg,s,100,Subject1,1,2019-10-16_10h06.54.797,MentalRotationFinal,3.1.2,60
77,77,s,1,2.8379998210000004,1,0,100,66,1,99,i30_150.jpg,s,150,Subject1,1,2019-10-16_10h06.54.797,MentalRotationFinal,3.1.2,60
78,78,s,1,3.936000109,1,0,100,68,1,99,i31_150.jpg,s,150,Subject1,1,2019-10-16_10h06.54.797,MentalRotationFinal,3.1.2,60
79,79,s,1,1.138999939,1,0,100,47,1,99,i22_50.jpg,s,50,Subject1,1,2019-10-16_10h06.54.797,MentalRotationFinal,3.1.2,60
80,80,s,1,3.653000116,1,0,100,4,1,99,i2_100.jpg,s,100,Subject1,1,2019-10-16_10h06.54.797,MentalRotationFinal,3.1.2,60
81,81,d,1,3.005999804,1,0,100,37,1,99,i17_150_R.jpg,d,150,Subject1,1,2019-10-16_10h06.54.797,MentalRotationFinal,3.1.2,60
82,82,s,1,4.135999918,1,0,100,92,1,99,i42_150.jpg,s,150,Subject1,1,2019-10-16_10h06.54.797,MentalRotationFinal,3.1.2,60
83,83,s,1,1.986999989,1,0,100,84,1,99,i39_0.jpg,s,0,Subject1,1,2019-10-16_10h06.54.797,MentalRotationFinal,3.1.2,60
84,84,s,1,1.7880001069999998,1,0,100,26,1,99,i12_100.jpg,s,100,Subject1,1,2019-10-16_10h06.54.797,MentalRotationFinal,3.1.2,60
85,85,s,1,3.819999933,1,0,100,64,1,99,i29_150.jpg,s,150,Subject1,1,2019-10-16_10h06.54.797,MentalRotationFinal,3.1.2,60
86,86,d,1,5.5199999810000016,1,0,100,69,1,99,i32_100_R.jpg,d,100,Subject1,1,2019-10-16_10h06.54.797,MentalRotationFinal,3.1.2,60
87,87,d,0,4.903000116,1,0,100,13,1,99,i6_100.jpg,s,100,Subject1,1,2019-10-16_10h06.54.797,MentalRotationFinal,3.1.2,60
88,88,s,1,1.038000107,1,0,100,38,1,99,i18_50.jpg,s,50,Subject1,1,2019-10-16_10h06.54.797,MentalRotationFinal,3.1.2,60
89,89,d,1,2.022000074,1,0,100,91,1,99,i42_100_R.jpg,d,100,Subject1,1,2019-10-16_10h06.54.797,MentalRotationFinal,3.1.2,60
90,90,s,1,1.019999981,1,0,100,75,1,99,i35_0.jpg,s,0,Subject1,1,2019-10-16_10h06.54.797,MentalRotationFinal,3.1.2,60
91,91,s,1,1.470999956,1,0,100,63,1,99,i29_50.jpg,s,50,Subject1,1,2019-10-16_10h06.54.797,MentalRotationFinal,3.1.2,60
92,92,s,1,0.751999855,1,0,100,62,1,99,i29_0.jpg,s,0,Subject1,1,2019-10-16_10h06.54.797,MentalRotationFinal,3.1.2,60
93,93,d,1,1.4700000290000002,1,0,100,59,1,99,i27_150_R.jpg,d,150,Subject1,1,2019-10-16_10h06.54.797,MentalRotationFinal,3.1.2,60
94,94,d,0,1.604000092,1,0,100,90,1,99,i41_150.jpg,s,150,Subject1,1,2019-10-16_10h06.54.797,MentalRotationFinal,3.1.2,60
95,95,d,1,3.586999893,1,0,100,76,1,99,i35_100_R.jpg,d,100,Subject1,1,2019-10-16_10h06.54.797,MentalRotationFinal,3.1.2,60
96,96,s,1,1.3700001240000002,1,0,100,40,1,99,i19_0.jpg,s,0,Subject1,1,2019-10-16_10h06.54.797,MentalRotationFinal,3.1.2,60
97,97,s,1,1.005000114,1,0,100,29,1,99,i14_0.jpg,s,0,Subject1,1,2019-10-16_10h06.54.797,MentalRotationFinal,3.1.2,60
98,98,d,1,1.303999901,1,0,100,21,1,99,i10_50_R.jpg,d,50,Subject1,1,2019-10-16_10h06.54.797,MentalRotationFinal,3.1.2,60
99,99,s,1,1.453000069,1,0,100,60,1,99,i28_50.jpg,s,50,Subject1,1,2019-10-16_10h06.54.797,MentalRotationFinal,3.1.2,60
100,0,s,1,6.5299999710000005,1,0,100,38,1,99,i18_50.jpg,s,50,Subject2,1,2019-10-16_10h15.03.136,MentalRotationFinal,3.1.2,60
101,1,s,1,4.181999922,1,0,100,9,1,99,i5_0.jpg,s,0,Subject2,1,2019-10-16_10h15.03.136,MentalRotationFinal,3.1.2,60
102,2,d,0,12.52800012,1,0,100,72,1,99,i33_150.jpg,s,150,Subject2,1,2019-10-16_10h15.03.136,MentalRotationFinal,3.1.2,60
103,3,s,1,3.782999992,1,0,100,4,1,99,i2_100.jpg,s,100,Subject2,1,2019-10-16_10h15.03.136,MentalRotationFinal,3.1.2,60
104,4,d,1,5.325000048,1,0,100,48,1,99,i22_150_R.jpg,d,150,Subject2,1,2019-10-16_10h15.03.136,MentalRotationFinal,3.1.2,60
105,5,s,1,5.67599988,1,0,100,66,1,99,i30_150.jpg,s,150,Subject2,1,2019-10-16_10h15.03.136,MentalRotationFinal,3.1.2,60
106,6,d,1,6.078999996,1,0,100,14,1,99,i7_50_R.jpg,d,50,Subject2,1,2019-10-16_10h15.03.136,MentalRotationFinal,3.1.2,60
107,7,d,1,5.006999969,1,0,100,27,1,99,i13_50_R.jpg,d,50,Subject2,1,2019-10-16_10h15.03.136,MentalRotationFinal,3.1.2,60
108,8,d,1,6.473999977,1,0,100,37,1,99,i17_150_R.jpg,d,150,Subject2,1,2019-10-16_10h15.03.136,MentalRotationFinal,3.1.2,60
109,9,d,1,8.049000025,1,0,100,44,1,99,i20_150_R.jpg,d,150,Subject2,1,2019-10-16_10h15.03.136,MentalRotationFinal,3.1.2,60
110,10,s,1,6.075999975,1,0,100,74,1,99,i34_150.jpg,s,150,Subject2,1,2019-10-16_10h15.03.136,MentalRotationFinal,3.1.2,60
111,11,d,1,10.40699983,1,0,100,67,1,99,i31_100_R.jpg,d,100,Subject2,1,2019-10-16_10h15.03.136,MentalRotationFinal,3.1.2,60
112,12,s,1,6.080000162,1,0,100,90,1,99,i41_150.jpg,s,150,Subject2,1,2019-10-16_10h15.03.136,MentalRotationFinal,3.1.2,60
113,13,s,1,2.823000193,1,0,100,60,1,99,i28_50.jpg,s,50,Subject2,1,2019-10-16_10h15.03.136,MentalRotationFinal,3.1.2,60
114,14,d,1,5.799000025,1,0,100,89,1,99,i41_100_R.jpg,d,100,Subject2,1,2019-10-16_10h15.03.136,MentalRotationFinal,3.1.2,60
115,15,d,1,2.299000025,1,0,100,73,1,99,i34_100_R.jpg,d,100,Subject2,1,2019-10-16_10h15.03.136,MentalRotationFinal,3.1.2,60
116,16,d,1,4.307999849,1,0,100,5,1,99,i3_50_R.jpg,d,50,Subject2,1,2019-10-16_10h15.03.136,MentalRotationFinal,3.1.2,60
117,17,s,1,4.439999819,1,0,100,92,1,99,i42_150.jpg,s,150,Subject2,1,2019-10-16_10h15.03.136,MentalRotationFinal,3.1.2,60
118,18,s,1,5.131999969,1,0,100,49,1,99,i23_50.jpg,s,50,Subject2,1,2019-10-16_10h15.03.136,MentalRotationFinal,3.1.2,60
119,19,s,1,2.555999994,1,0,100,47,1,99,i22_50.jpg,s,50,Subject2,1,2019-10-16_10h15.03.136,MentalRotationFinal,3.1.2,60
120,20,s,0,3.640000105,1,0,100,35,1,99,i16_150_R.jpg,d,150,Subject2,1,2019-10-16_10h15.03.136,MentalRotationFinal,3.1.2,60
121,21,s,1,10.95799994,1,0,100,64,1,99,i29_150.jpg,s,150,Subject2,1,2019-10-16_10h15.03.136,MentalRotationFinal,3.1.2,60
122,22,s,1,6.94299984,1,0,100,22,1,99,i10_100.jpg,s,100,Subject2,1,2019-10-16_10h15.03.136,MentalRotationFinal,3.1.2,60
123,23,s,1,6.794999838,1,0,100,86,1,99,i39_150.jpg,s,150,Subject2,1,2019-10-16_10h15.03.136,MentalRotationFinal,3.1.2,60
124,24,s,1,2.888999939,1,0,100,53,1,99,i25_0.jpg,s,0,Subject2,1,2019-10-16_10h15.03.136,MentalRotationFinal,3.1.2,60
125,25,s,1,2.551000118,1,0,100,34,1,99,i16_50.jpg,s,50,Subject2,1,2019-10-16_10h15.03.136,MentalRotationFinal,3.1.2,60
126,26,s,1,6.082000017,1,0,100,97,1,99,i46_100.jpg,s,100,Subject2,1,2019-10-16_10h15.03.136,MentalRotationFinal,3.1.2,60
127,27,s,1,2.287999868,1,0,100,18,1,99,i9_0.jpg,s,0,Subject2,1,2019-10-16_10h15.03.136,MentalRotationFinal,3.1.2,60
128,28,d,1,1.700999975,1,0,100,30,1,99,i14_50_R.jpg,d,50,Subject2,1,2019-10-16_10h15.03.136,MentalRotationFinal,3.1.2,60
129,29,d,1,3.45299983,1,0,100,85,1,99,i39_100_R.jpg,d,100,Subject2,1,2019-10-16_10h15.03.136,MentalRotationFinal,3.1.2,60
130,30,s,1,1.967999935,1,0,100,0,1,99,i1_0.jpg,s,0,Subject2,1,2019-10-16_10h15.03.136,MentalRotationFinal,3.1.2,60
131,31,s,1,1.73300004,1,0,100,84,1,99,i39_0.jpg,s,0,Subject2,1,2019-10-16_10h15.03.136,MentalRotationFinal,3.1.2,60
132,32,d,1,1.91899991,1,0,100,25,1,99,i12_50_R.jpg,d,50,Subject2,1,2019-10-16_10h15.03.136,MentalRotationFinal,3.1.2,60
133,33,s,1,6.329999924,1,0,100,8,1,99,i4_100.jpg,s,100,Subject2,1,2019-10-16_10h15.03.136,MentalRotationFinal,3.1.2,60
134,34,s,1,7.384000062999999,1,0,100,13,1,99,i6_100.jpg,s,100,Subject2,1,2019-10-16_10h15.03.136,MentalRotationFinal,3.1.2,60
135,35,s,1,1.263999939,1,0,100,40,1,99,i19_0.jpg,s,0,Subject2,1,2019-10-16_10h15.03.136,MentalRotationFinal,3.1.2,60
136,36,d,1,4.930000067,1,0,100,76,1,99,i35_100_R.jpg,d,100,Subject2,1,2019-10-16_10h15.03.136,MentalRotationFinal,3.1.2,60
137,37,d,1,8.869000196,1,0,100,91,1,99,i42_100_R.jpg,d,100,Subject2,1,2019-10-16_10h15.03.136,MentalRotationFinal,3.1.2,60
138,38,s,1,15.85699987,1,0,100,99,1,99,i48_100.jpg,s,100,Subject2,1,2019-10-16_10h15.03.136,MentalRotationFinal,3.1.2,60
139,39,s,1,4.359999895,1,0,100,65,1,99,i30_50.jpg,s,50,Subject2,1,2019-10-16_10h15.03.136,MentalRotationFinal,3.1.2,60
140,40,d,1,2.448999882,1,0,100,1,1,99,i1_50_R.jpg,d,50,Subject2,1,2019-10-16_10h15.03.136,MentalRotationFinal,3.1.2,60
141,41,s,1,15.52200007,1,0,100,41,1,99,i19_50.jpg,s,50,Subject2,1,2019-10-16_10h15.03.136,MentalRotationFinal,3.1.2,60
142,42,d,1,4.3439998630000005,1,0,100,69,1,99,i32_100_R.jpg,d,100,Subject2,1,2019-10-16_10h15.03.136,MentalRotationFinal,3.1.2,60
143,43,d,1,2.585999966,1,0,100,32,1,99,i15_50_R.jpg,d,50,Subject2,1,2019-10-16_10h15.03.136,MentalRotationFinal,3.1.2,60
144,44,s,0,4.041000128,1,0,100,95,1,99,i44_100_R.jpg,d,100,Subject2,1,2019-10-16_10h15.03.136,MentalRotationFinal,3.1.2,60
145,45,s,1,25.33599997,1,0,100,77,1,99,i35_150.jpg,s,150,Subject2,1,2019-10-16_10h15.03.136,MentalRotationFinal,3.1.2,60
146,46,d,1,6.434000015,1,0,100,71,1,99,i33_100_R.jpg,d,100,Subject2,1,2019-10-16_10h15.03.136,MentalRotationFinal,3.1.2,60
147,47,d,1,4.807999849,1,0,100,23,1,99,i11_50_R.jpg,d,50,Subject2,1,2019-10-16_10h15.03.136,MentalRotationFinal,3.1.2,60
148,48,s,1,2.787999868,1,0,100,98,1,99,i47_100.jpg,s,100,Subject2,1,2019-10-16_10h15.03.136,MentalRotationFinal,3.1.2,60
149,49,s,1,3.508000135,1,0,100,26,1,99,i12_100.jpg,s,100,Subject2,1,2019-10-16_10h15.03.136,MentalRotationFinal,3.1.2,60
150,50,d,1,4.2900002,1,0,100,87,1,99,i40_100_R.jpg,d,100,Subject2,1,2019-10-16_10h15.03.136,MentalRotationFinal,3.1.2,60
151,51,s,1,1.111000061,1,0,100,29,1,99,i14_0.jpg,s,0,Subject2,1,2019-10-16_10h15.03.136,MentalRotationFinal,3.1.2,60
152,52,d,1,4.707000017,1,0,100,96,1,99,i45_100_R.jpg,d,100,Subject2,1,2019-10-16_10h15.03.136,MentalRotationFinal,3.1.2,60
153,53,s,1,2.78399992,1,0,100,51,1,99,i24_50.jpg,s,50,Subject2,1,2019-10-16_10h15.03.136,MentalRotationFinal,3.1.2,60
154,54,s,1,3.019999981,1,0,100,45,1,99,i21_50.jpg,s,50,Subject2,1,2019-10-16_10h15.03.136,MentalRotationFinal,3.1.2,60
155,55,s,1,10.69199991,1,0,100,6,1,99,i3_100.jpg,s,100,Subject2,1,2019-10-16_10h15.03.136,MentalRotationFinal,3.1.2,60
156,56,s,1,2.583000183,1,0,100,62,1,99,i29_0.jpg,s,0,Subject2,1,2019-10-16_10h15.03.136,MentalRotationFinal,3.1.2,60
157,57,d,1,5.012000083999999,1,0,100,78,1,99,i36_100_R.jpg,d,100,Subject2,1,2019-10-16_10h15.03.136,MentalRotationFinal,3.1.2,60
158,58,s,1,3.3289999960000003,1,0,100,61,1,99,i28_150.jpg,s,150,Subject2,1,2019-10-16_10h15.03.136,MentalRotationFinal,3.1.2,60
159,59,d,1,3.589999914,1,0,100,19,1,99,i9_50_R.jpg,d,50,Subject2,1,2019-10-16_10h15.03.136,MentalRotationFinal,3.1.2,60
160,60,s,1,3.874000072,1,0,100,56,1,99,i26_50.jpg,s,50,Subject2,1,2019-10-16_10h15.03.136,MentalRotationFinal,3.1.2,60
161,61,d,1,8.917999983,1,0,100,59,1,99,i27_150_R.jpg,d,150,Subject2,1,2019-10-16_10h15.03.136,MentalRotationFinal,3.1.2,60
162,62,s,1,2.586000204,1,0,100,58,1,99,i27_50.jpg,s,50,Subject2,1,2019-10-16_10h15.03.136,MentalRotationFinal,3.1.2,60
163,63,d,1,4.162000179,1,0,100,93,1,99,i43_100_R.jpg,d,100,Subject2,1,2019-10-16_10h15.03.136,MentalRotationFinal,3.1.2,60
164,64,d,1,3.555999994,1,0,100,16,1,99,i8_50_R.jpg,d,50,Subject2,1,2019-10-16_10h15.03.136,MentalRotationFinal,3.1.2,60
165,65,d,1,6.075999975,1,0,100,28,1,99,i13_150_R.jpg,d,150,Subject2,1,2019-10-16_10h15.03.136,MentalRotationFinal,3.1.2,60
166,66,d,1,2.621999979,1,0,100,46,1,99,i21_150_R.jpg,d,150,Subject2,1,2019-10-16_10h15.03.136,MentalRotationFinal,3.1.2,60
167,67,d,1,3.489000082,1,0,100,42,1,99,i19_150_R.jpg,d,150,Subject2,1,2019-10-16_10h15.03.136,MentalRotationFinal,3.1.2,60
168,68,s,0,3.555000067,1,0,100,50,1,99,i23_150_R.jpg,d,150,Subject2,1,2019-10-16_10h15.03.136,MentalRotationFinal,3.1.2,60
169,69,s,1,3.039000034,1,0,100,83,1,99,i38_150.jpg,s,150,Subject2,1,2019-10-16_10h15.03.136,MentalRotationFinal,3.1.2,60
170,70,d,1,3.489000082,1,0,100,7,1,99,i4_50_R.jpg,d,50,Subject2,1,2019-10-16_10h15.03.136,MentalRotationFinal,3.1.2,60
171,71,s,1,6.0720000270000005,1,0,100,88,1,99,i40_150.jpg,s,150,Subject2,1,2019-10-16_10h15.03.136,MentalRotationFinal,3.1.2,60
172,72,s,1,2.9709999560000004,1,0,100,11,1,99,i5_100.jpg,s,100,Subject2,1,2019-10-16_10h15.03.136,MentalRotationFinal,3.1.2,60
173,73,d,1,7.691000223,1,0,100,12,1,99,i6_50_R.jpg,d,50,Subject2,1,2019-10-16_10h15.03.136,MentalRotationFinal,3.1.2,60
174,74,d,1,8.132999897000001,1,0,100,33,1,99,i15_150_R.jpg,d,150,Subject2,1,2019-10-16_10h15.03.136,MentalRotationFinal,3.1.2,60
175,75,s,1,14.88899994,1,0,100,70,1,99,i32_150.jpg,s,150,Subject2,1,2019-10-16_10h15.03.136,MentalRotationFinal,3.1.2,60
176,76,s,1,2.835999966,1,0,100,75,1,99,i35_0.jpg,s,0,Subject2,1,2019-10-16_10h15.03.136,MentalRotationFinal,3.1.2,60
177,77,s,1,8.322999954,1,0,100,81,1,99,i37_150.jpg,s,150,Subject2,1,2019-10-16_10h15.03.136,MentalRotationFinal,3.1.2,60
178,78,s,1,13.66699982,1,0,100,24,1,99,i11_100.jpg,s,100,Subject2,1,2019-10-16_10h15.03.136,MentalRotationFinal,3.1.2,60
179,79,s,1,2.921000004,1,0,100,17,1,99,i8_100.jpg,s,100,Subject2,1,2019-10-16_10h15.03.136,MentalRotationFinal,3.1.2,60
180,80,s,1,3.56799984,1,0,100,20,1,99,i9_100.jpg,s,100,Subject2,1,2019-10-16_10h15.03.136,MentalRotationFinal,3.1.2,60
181,81,s,1,3.969000101,1,0,100,36,1,99,i17_50.jpg,s,50,Subject2,1,2019-10-16_10h15.03.136,MentalRotationFinal,3.1.2,60
182,82,d,1,2.67200017,1,0,100,82,1,99,i38_100_R.jpg,d,100,Subject2,1,2019-10-16_10h15.03.136,MentalRotationFinal,3.1.2,60
183,83,d,1,10.21999979,1,0,100,57,1,99,i26_150_R.jpg,d,150,Subject2,1,2019-10-16_10h15.03.136,MentalRotationFinal,3.1.2,60
184,84,s,1,2.621999979,1,0,100,63,1,99,i29_50.jpg,s,50,Subject2,1,2019-10-16_10h15.03.136,MentalRotationFinal,3.1.2,60
185,85,d,1,4.152999878,1,0,100,39,1,99,i18_150_R.jpg,d,150,Subject2,1,2019-10-16_10h15.03.136,MentalRotationFinal,3.1.2,60
186,86,d,1,4.697999954,1,0,100,21,1,99,i10_50_R.jpg,d,50,Subject2,1,2019-10-16_10h15.03.136,MentalRotationFinal,3.1.2,60
187,87,d,1,5.661999941,1,0,100,52,1,99,i24_150_R.jpg,d,150,Subject2,1,2019-10-16_10h15.03.136,MentalRotationFinal,3.1.2,60
188,88,d,1,3.302999973,1,0,100,55,1,99,i25_150_R.jpg,d,150,Subject2,1,2019-10-16_10h15.03.136,MentalRotationFinal,3.1.2,60
189,89,s,1,3.653000116,1,0,100,79,1,99,i36_150.jpg,s,150,Subject2,1,2019-10-16_10h15.03.136,MentalRotationFinal,3.1.2,60
190,90,s,1,5.726999997999999,1,0,100,43,1,99,i20_50.jpg,s,50,Subject2,1,2019-10-16_10h15.03.136,MentalRotationFinal,3.1.2,60
191,91,s,1,1.2799999709999998,1,0,100,94,1,99,i44_0.jpg,s,0,Subject2,1,2019-10-16_10h15.03.136,MentalRotationFinal,3.1.2,60
192,92,d,1,14.98399997,1,0,100,10,1,99,i5_50_R.jpg,d,50,Subject2,1,2019-10-16_10h15.03.136,MentalRotationFinal,3.1.2,60
193,93,s,1,6.383000135,1,0,100,15,1,99,i7_100.jpg,s,100,Subject2,1,2019-10-16_10h15.03.136,MentalRotationFinal,3.1.2,60
194,94,d,1,13.7980001,1,0,100,31,1,99,i14_150_R.jpg,d,150,Subject2,1,2019-10-16_10h15.03.136,MentalRotationFinal,3.1.2,60
195,95,s,1,9.054000139,1,0,100,68,1,99,i31_150.jpg,s,150,Subject2,1,2019-10-16_10h15.03.136,MentalRotationFinal,3.1.2,60
196,96,d,1,3.836999893,1,0,100,3,1,99,i2_50_R.jpg,d,50,Subject2,1,2019-10-16_10h15.03.136,MentalRotationFinal,3.1.2,60
197,97,s,1,5.711999893,1,0,100,54,1,99,i25_50.jpg,s,50,Subject2,1,2019-10-16_10h15.03.136,MentalRotationFinal,3.1.2,60
198,98,s,1,7.267999887,1,0,100,2,1,99,i1_100.jpg,s,100,Subject2,1,2019-10-16_10h15.03.136,MentalRotationFinal,3.1.2,60
199,99,d,1,4.506999969,1,0,100,80,1,99,i37_100_R.jpg,d,100,Subject2,1,2019-10-16_10h15.03.136,MentalRotationFinal,3.1.2,60
200,0,d,1,4.964999914,1,0,100,95,1,99,i44_100_R.jpg,d,100,Subject3,1,2019-10-16_10h06.49.958,MentalRotationFinal,3.1.2,60
201,1,s,1,6.038000107,1,0,100,81,1,99,i37_150.jpg,s,150,Subject3,1,2019-10-16_10h06.49.958,MentalRotationFinal,3.1.2,60
202,2,d,1,3.167000055,1,0,100,3,1,99,i2_50_R.jpg,d,50,Subject3,1,2019-10-16_10h06.49.958,MentalRotationFinal,3.1.2,60
203,3,s,1,1.861000061,1,0,100,63,1,99,i29_50.jpg,s,50,Subject3,1,2019-10-16_10h06.49.958,MentalRotationFinal,3.1.2,60
204,4,s,1,3.131999969,1,0,100,68,1,99,i31_150.jpg,s,150,Subject3,1,2019-10-16_10h06.49.958,MentalRotationFinal,3.1.2,60
205,5,s,1,1.339999914,1,0,100,56,1,99,i26_50.jpg,s,50,Subject3,1,2019-10-16_10h06.49.958,MentalRotationFinal,3.1.2,60
206,6,d,1,5.177999973,1,0,100,87,1,99,i40_100_R.jpg,d,100,Subject3,1,2019-10-16_10h06.49.958,MentalRotationFinal,3.1.2,60
207,7,d,1,3.800000191,1,0,100,5,1,99,i3_50_R.jpg,d,50,Subject3,1,2019-10-16_10h06.49.958,MentalRotationFinal,3.1.2,60
208,8,s,1,0.996999979,1,0,100,29,1,99,i14_0.jpg,s,0,Subject3,1,2019-10-16_10h06.49.958,MentalRotationFinal,3.1.2,60
209,9,s,1,1.4950001240000002,1,0,100,45,1,99,i21_50.jpg,s,50,Subject3,1,2019-10-16_10h06.49.958,MentalRotationFinal,3.1.2,60
210,10,d,1,2.683000088,1,0,100,16,1,99,i8_50_R.jpg,d,50,Subject3,1,2019-10-16_10h06.49.958,MentalRotationFinal,3.1.2,60
211,11,d,0,3.920000076,1,0,100,64,1,99,i29_150.jpg,s,150,Subject3,1,2019-10-16_10h06.49.958,MentalRotationFinal,3.1.2,60
212,12,d,1,3.599999905,1,0,100,91,1,99,i42_100_R.jpg,d,100,Subject3,1,2019-10-16_10h06.49.958,MentalRotationFinal,3.1.2,60
213,13,s,1,2.148999929,1,0,100,2,1,99,i1_100.jpg,s,100,Subject3,1,2019-10-16_10h06.49.958,MentalRotationFinal,3.1.2,60
214,14,d,1,2.863999844,1,0,100,85,1,99,i39_100_R.jpg,d,100,Subject3,1,2019-10-16_10h06.49.958,MentalRotationFinal,3.1.2,60
215,15,s,0,1.112999916,1,0,100,55,1,99,i25_150_R.jpg,d,150,Subject3,1,2019-10-16_10h06.49.958,MentalRotationFinal,3.1.2,60
216,16,s,1,2.815000057,1,0,100,20,1,99,i9_100.jpg,s,100,Subject3,1,2019-10-16_10h06.49.958,MentalRotationFinal,3.1.2,60
217,17,d,1,4.30700016,1,0,100,69,1,99,i32_100_R.jpg,d,100,Subject3,1,2019-10-16_10h06.49.958,MentalRotationFinal,3.1.2,60
218,18,d,1,2.101000071,1,0,100,12,1,99,i6_50_R.jpg,d,50,Subject3,1,2019-10-16_10h06.49.958,MentalRotationFinal,3.1.2,60
219,19,d,1,1.763999939,1,0,100,1,1,99,i1_50_R.jpg,d,50,Subject3,1,2019-10-16_10h06.49.958,MentalRotationFinal,3.1.2,60
220,20,s,1,2.5680000780000003,1,0,100,83,1,99,i38_150.jpg,s,150,Subject3,1,2019-10-16_10h06.49.958,MentalRotationFinal,3.1.2,60
221,21,s,1,1.309000015,1,0,100,86,1,99,i39_150.jpg,s,150,Subject3,1,2019-10-16_10h06.49.958,MentalRotationFinal,3.1.2,60
222,22,d,1,1.58100009,1,0,100,27,1,99,i13_50_R.jpg,d,50,Subject3,1,2019-10-16_10h06.49.958,MentalRotationFinal,3.1.2,60
223,23,s,1,2.570000172,1,0,100,54,1,99,i25_50.jpg,s,50,Subject3,1,2019-10-16_10h06.49.958,MentalRotationFinal,3.1.2,60
224,24,s,1,3.4670000080000003,1,0,100,61,1,99,i28_150.jpg,s,150,Subject3,1,2019-10-16_10h06.49.958,MentalRotationFinal,3.1.2,60
225,25,s,1,1.013000011,1,0,100,34,1,99,i16_50.jpg,s,50,Subject3,1,2019-10-16_10h06.49.958,MentalRotationFinal,3.1.2,60
226,26,s,1,1.013000011,1,0,100,41,1,99,i19_50.jpg,s,50,Subject3,1,2019-10-16_10h06.49.958,MentalRotationFinal,3.1.2,60
227,27,d,1,1.486999989,1,0,100,48,1,99,i22_150_R.jpg,d,150,Subject3,1,2019-10-16_10h06.49.958,MentalRotationFinal,3.1.2,60
228,28,d,1,2.149000168,1,0,100,89,1,99,i41_100_R.jpg,d,100,Subject3,1,2019-10-16_10h06.49.958,MentalRotationFinal,3.1.2,60
229,29,s,1,0.995000124,1,0,100,0,1,99,i1_0.jpg,s,0,Subject3,1,2019-10-16_10h06.49.958,MentalRotationFinal,3.1.2,60
230,30,d,1,2.03399992,1,0,100,10,1,99,i5_50_R.jpg,d,50,Subject3,1,2019-10-16_10h06.49.958,MentalRotationFinal,3.1.2,60
231,31,s,1,1.465000153,1,0,100,26,1,99,i12_100.jpg,s,100,Subject3,1,2019-10-16_10h06.49.958,MentalRotationFinal,3.1.2,60
232,32,s,1,0.878000021,1,0,100,47,1,99,i22_50.jpg,s,50,Subject3,1,2019-10-16_10h06.49.958,MentalRotationFinal,3.1.2,60
233,33,d,0,1.917000055,1,0,100,79,1,99,i36_150.jpg,s,150,Subject3,1,2019-10-16_10h06.49.958,MentalRotationFinal,3.1.2,60
234,34,s,0,2.488000154,1,0,100,57,1,99,i26_150_R.jpg,d,150,Subject3,1,2019-10-16_10h06.49.958,MentalRotationFinal,3.1.2,60
235,35,d,1,2.01699996,1,0,100,71,1,99,i33_100_R.jpg,d,100,Subject3,1,2019-10-16_10h06.49.958,MentalRotationFinal,3.1.2,60
236,36,d,1,3.667999983,1,0,100,21,1,99,i10_50_R.jpg,d,50,Subject3,1,2019-10-16_10h06.49.958,MentalRotationFinal,3.1.2,60
237,37,d,1,1.453999996,1,0,100,30,1,99,i14_50_R.jpg,d,50,Subject3,1,2019-10-16_10h06.49.958,MentalRotationFinal,3.1.2,60
238,38,s,0,2.437999964,1,0,100,33,1,99,i15_150_R.jpg,d,150,Subject3,1,2019-10-16_10h06.49.958,MentalRotationFinal,3.1.2,60
239,39,s,1,0.996000051,1,0,100,51,1,99,i24_50.jpg,s,50,Subject3,1,2019-10-16_10h06.49.958,MentalRotationFinal,3.1.2,60
240,40,s,1,0.930000067,1,0,100,43,1,99,i20_50.jpg,s,50,Subject3,1,2019-10-16_10h06.49.958,MentalRotationFinal,3.1.2,60
241,41,d,1,1.046999931,1,0,100,32,1,99,i15_50_R.jpg,d,50,Subject3,1,2019-10-16_10h06.49.958,MentalRotationFinal,3.1.2,60
242,42,s,1,0.910000086,1,0,100,9,1,99,i5_0.jpg,s,0,Subject3,1,2019-10-16_10h06.49.958,MentalRotationFinal,3.1.2,60
243,43,d,1,2.397000074,1,0,100,46,1,99,i21_150_R.jpg,d,150,Subject3,1,2019-10-16_10h06.49.958,MentalRotationFinal,3.1.2,60
244,44,s,1,2.349999905,1,0,100,58,1,99,i27_50.jpg,s,50,Subject3,1,2019-10-16_10h06.49.958,MentalRotationFinal,3.1.2,60
245,45,s,1,3.006000042,1,0,100,74,1,99,i34_150.jpg,s,150,Subject3,1,2019-10-16_10h06.49.958,MentalRotationFinal,3.1.2,60
246,46,s,1,2.93599987,1,0,100,11,1,99,i5_100.jpg,s,100,Subject3,1,2019-10-16_10h06.49.958,MentalRotationFinal,3.1.2,60
247,47,s,1,1.868000031,1,0,100,17,1,99,i8_100.jpg,s,100,Subject3,1,2019-10-16_10h06.49.958,MentalRotationFinal,3.1.2,60
248,48,d,1,2.13499999,1,0,100,82,1,99,i38_100_R.jpg,d,100,Subject3,1,2019-10-16_10h06.49.958,MentalRotationFinal,3.1.2,60
249,49,s,1,2.849999905,1,0,100,97,1,99,i46_100.jpg,s,100,Subject3,1,2019-10-16_10h06.49.958,MentalRotationFinal,3.1.2,60
250,50,d,1,2.601999998,1,0,100,59,1,99,i27_150_R.jpg,d,150,Subject3,1,2019-10-16_10h06.49.958,MentalRotationFinal,3.1.2,60
251,51,d,1,3.245000124,1,0,100,19,1,99,i9_50_R.jpg,d,50,Subject3,1,2019-10-16_10h06.49.958,MentalRotationFinal,3.1.2,60
252,52,s,1,1.901000023,1,0,100,4,1,99,i2_100.jpg,s,100,Subject3,1,2019-10-16_10h06.49.958,MentalRotationFinal,3.1.2,60
253,53,s,0,1.906999826,1,0,100,7,1,99,i4_50_R.jpg,d,50,Subject3,1,2019-10-16_10h06.49.958,MentalRotationFinal,3.1.2,60
254,54,s,1,1.886000156,1,0,100,98,1,99,i47_100.jpg,s,100,Subject3,1,2019-10-16_10h06.49.958,MentalRotationFinal,3.1.2,60
255,55,s,1,2.470000029,1,0,100,8,1,99,i4_100.jpg,s,100,Subject3,1,2019-10-16_10h06.49.958,MentalRotationFinal,3.1.2,60
256,56,d,1,2.851000071,1,0,100,80,1,99,i37_100_R.jpg,d,100,Subject3,1,2019-10-16_10h06.49.958,MentalRotationFinal,3.1.2,60
257,57,s,0,2.065000057,1,0,100,42,1,99,i19_150_R.jpg,d,150,Subject3,1,2019-10-16_10h06.49.958,MentalRotationFinal,3.1.2,60
258,58,d,1,3.84100008,1,0,100,76,1,99,i35_100_R.jpg,d,100,Subject3,1,2019-10-16_10h06.49.958,MentalRotationFinal,3.1.2,60
259,59,s,1,3.802999973,1,0,100,13,1,99,i6_100.jpg,s,100,Subject3,1,2019-10-16_10h06.49.958,MentalRotationFinal,3.1.2,60
260,60,s,1,1.548999786,1,0,100,65,1,99,i30_50.jpg,s,50,Subject3,1,2019-10-16_10h06.49.958,MentalRotationFinal,3.1.2,60
261,61,s,1,3.353999853,1,0,100,66,1,99,i30_150.jpg,s,150,Subject3,1,2019-10-16_10h06.49.958,MentalRotationFinal,3.1.2,60
262,62,s,0,1.76699996,1,0,100,39,1,99,i18_150_R.jpg,d,150,Subject3,1,2019-10-16_10h06.49.958,MentalRotationFinal,3.1.2,60
263,63,s,1,1.435000181,1,0,100,49,1,99,i23_50.jpg,s,50,Subject3,1,2019-10-16_10h06.49.958,MentalRotationFinal,3.1.2,60
264,64,d,1,2.349999905,1,0,100,52,1,99,i24_150_R.jpg,d,150,Subject3,1,2019-10-16_10h06.49.958,MentalRotationFinal,3.1.2,60
265,65,s,1,1.202000141,1,0,100,53,1,99,i25_0.jpg,s,0,Subject3,1,2019-10-16_10h06.49.958,MentalRotationFinal,3.1.2,60
266,66,s,1,2.536000013,1,0,100,72,1,99,i33_150.jpg,s,150,Subject3,1,2019-10-16_10h06.49.958,MentalRotationFinal,3.1.2,60
267,67,d,1,1.682999849,1,0,100,31,1,99,i14_150_R.jpg,d,150,Subject3,1,2019-10-16_10h06.49.958,MentalRotationFinal,3.1.2,60
268,68,d,1,3.049000025,1,0,100,78,1,99,i36_100_R.jpg,d,100,Subject3,1,2019-10-16_10h06.49.958,MentalRotationFinal,3.1.2,60
269,69,s,1,4.575000048,1,0,100,70,1,99,i32_150.jpg,s,150,Subject3,1,2019-10-16_10h06.49.958,MentalRotationFinal,3.1.2,60
270,70,d,1,2.437000036,1,0,100,28,1,99,i13_150_R.jpg,d,150,Subject3,1,2019-10-16_10h06.49.958,MentalRotationFinal,3.1.2,60
271,71,s,1,2.8340001110000004,1,0,100,36,1,99,i17_50.jpg,s,50,Subject3,1,2019-10-16_10h06.49.958,MentalRotationFinal,3.1.2,60
272,72,s,1,1.618999958,1,0,100,60,1,99,i28_50.jpg,s,50,Subject3,1,2019-10-16_10h06.49.958,MentalRotationFinal,3.1.2,60
273,73,d,1,2.782999992,1,0,100,35,1,99,i16_150_R.jpg,d,150,Subject3,1,2019-10-16_10h06.49.958,MentalRotationFinal,3.1.2,60
274,74,d,1,2.974999905,1,0,100,50,1,99,i23_150_R.jpg,d,150,Subject3,1,2019-10-16_10h06.49.958,MentalRotationFinal,3.1.2,60
275,75,s,1,1.198999882,1,0,100,38,1,99,i18_50.jpg,s,50,Subject3,1,2019-10-16_10h06.49.958,MentalRotationFinal,3.1.2,60
276,76,s,1,0.828000069,1,0,100,40,1,99,i19_0.jpg,s,0,Subject3,1,2019-10-16_10h06.49.958,MentalRotationFinal,3.1.2,60
277,77,d,1,3.236999989,1,0,100,67,1,99,i31_100_R.jpg,d,100,Subject3,1,2019-10-16_10h06.49.958,MentalRotationFinal,3.1.2,60
278,78,d,1,4.460000038,1,0,100,37,1,99,i17_150_R.jpg,d,150,Subject3,1,2019-10-16_10h06.49.958,MentalRotationFinal,3.1.2,60
279,79,s,1,0.957000017,1,0,100,62,1,99,i29_0.jpg,s,0,Subject3,1,2019-10-16_10h06.49.958,MentalRotationFinal,3.1.2,60
280,80,d,1,3.2039999960000003,1,0,100,73,1,99,i34_100_R.jpg,d,100,Subject3,1,2019-10-16_10h06.49.958,MentalRotationFinal,3.1.2,60
281,81,s,1,2.517999887,1,0,100,92,1,99,i42_150.jpg,s,150,Subject3,1,2019-10-16_10h06.49.958,MentalRotationFinal,3.1.2,60
282,82,s,0,3.4539999960000003,1,0,100,44,1,99,i20_150_R.jpg,d,150,Subject3,1,2019-10-16_10h06.49.958,MentalRotationFinal,3.1.2,60
283,83,s,1,1.980999947,1,0,100,90,1,99,i41_150.jpg,s,150,Subject3,1,2019-10-16_10h06.49.958,MentalRotationFinal,3.1.2,60
284,84,d,1,2.252000093,1,0,100,14,1,99,i7_50_R.jpg,d,50,Subject3,1,2019-10-16_10h06.49.958,MentalRotationFinal,3.1.2,60
285,85,s,1,1.065000057,1,0,100,18,1,99,i9_0.jpg,s,0,Subject3,1,2019-10-16_10h06.49.958,MentalRotationFinal,3.1.2,60
286,86,s,1,1.051000118,1,0,100,94,1,99,i44_0.jpg,s,0,Subject3,1,2019-10-16_10h06.49.958,MentalRotationFinal,3.1.2,60
287,87,s,1,2.234999895,1,0,100,15,1,99,i7_100.jpg,s,100,Subject3,1,2019-10-16_10h06.49.958,MentalRotationFinal,3.1.2,60
288,88,s,1,0.89199996,1,0,100,75,1,99,i35_0.jpg,s,0,Subject3,1,2019-10-16_10h06.49.958,MentalRotationFinal,3.1.2,60
289,89,d,1,3.098999977,1,0,100,23,1,99,i11_50_R.jpg,d,50,Subject3,1,2019-10-16_10h06.49.958,MentalRotationFinal,3.1.2,60
290,90,d,1,6.524000168,1,0,100,25,1,99,i12_50_R.jpg,d,50,Subject3,1,2019-10-16_10h06.49.958,MentalRotationFinal,3.1.2,60
291,91,s,1,2.773000002,1,0,100,22,1,99,i10_100.jpg,s,100,Subject3,1,2019-10-16_10h06.49.958,MentalRotationFinal,3.1.2,60
292,92,d,1,4.71600008,1,0,100,93,1,99,i43_100_R.jpg,d,100,Subject3,1,2019-10-16_10h06.49.958,MentalRotationFinal,3.1.2,60
293,93,s,1,2.523000002,1,0,100,24,1,99,i11_100.jpg,s,100,Subject3,1,2019-10-16_10h06.49.958,MentalRotationFinal,3.1.2,60
294,94,s,1,3.759000063,1,0,100,88,1,99,i40_150.jpg,s,150,Subject3,1,2019-10-16_10h06.49.958,MentalRotationFinal,3.1.2,60
295,95,s,1,0.830000162,1,0,100,84,1,99,i39_0.jpg,s,0,Subject3,1,2019-10-16_10h06.49.958,MentalRotationFinal,3.1.2,60
296,96,s,1,7.095999956,1,0,100,99,1,99,i48_100.jpg,s,100,Subject3,1,2019-10-16_10h06.49.958,MentalRotationFinal,3.1.2,60
297,97,d,1,2.838999987,1,0,100,96,1,99,i45_100_R.jpg,d,100,Subject3,1,2019-10-16_10h06.49.958,MentalRotationFinal,3.1.2,60
298,98,s,1,3.605999947,1,0,100,77,1,99,i35_150.jpg,s,150,Subject3,1,2019-10-16_10h06.49.958,MentalRotationFinal,3.1.2,60
299,99,s,1,2.049000025,1,0,100,6,1,99,i3_100.jpg,s,100,Subject3,1,2019-10-16_10h06.49.958,MentalRotationFinal,3.1.2,60
300,0,d,1,4.605000018999999,1,0,100,21,1,99,i10_50_R.jpg,d,50,Subject4,1,2019-10-16_10h13.25.202,MentalRotationFinal,3.1.2,60
301,1,d,1,5.746000051,1,0,100,89,1,99,i41_100_R.jpg,d,100,Subject4,1,2019-10-16_10h13.25.202,MentalRotationFinal,3.1.2,60
302,2,d,1,5.412999867999999,1,0,100,67,1,99,i31_100_R.jpg,d,100,Subject4,1,2019-10-16_10h13.25.202,MentalRotationFinal,3.1.2,60
303,3,d,1,4.764999866,1,0,100,7,1,99,i4_50_R.jpg,d,50,Subject4,1,2019-10-16_10h13.25.202,MentalRotationFinal,3.1.2,60
304,4,s,1,2.480999947,1,0,100,2,1,99,i1_100.jpg,s,100,Subject4,1,2019-10-16_10h13.25.202,MentalRotationFinal,3.1.2,60
305,5,d,1,5.282999992,1,0,100,30,1,99,i14_50_R.jpg,d,50,Subject4,1,2019-10-16_10h13.25.202,MentalRotationFinal,3.1.2,60
306,6,s,1,2.997999907,1,0,100,60,1,99,i28_50.jpg,s,50,Subject4,1,2019-10-16_10h13.25.202,MentalRotationFinal,3.1.2,60
307,7,s,1,3.413000107,1,0,100,74,1,99,i34_150.jpg,s,150,Subject4,1,2019-10-16_10h13.25.202,MentalRotationFinal,3.1.2,60
308,8,s,1,4.73300004,1,0,100,66,1,99,i30_150.jpg,s,150,Subject4,1,2019-10-16_10h13.25.202,MentalRotationFinal,3.1.2,60
309,9,s,1,3.399999857,1,0,100,62,1,99,i29_0.jpg,s,0,Subject4,1,2019-10-16_10h13.25.202,MentalRotationFinal,3.1.2,60
310,10,d,1,4.597000122,1,0,100,23,1,99,i11_50_R.jpg,d,50,Subject4,1,2019-10-16_10h13.25.202,MentalRotationFinal,3.1.2,60
311,11,d,1,3.128999949,1,0,100,35,1,99,i16_150_R.jpg,d,150,Subject4,1,2019-10-16_10h13.25.202,MentalRotationFinal,3.1.2,60
312,12,d,1,4.032000065,1,0,100,93,1,99,i43_100_R.jpg,d,100,Subject4,1,2019-10-16_10h13.25.202,MentalRotationFinal,3.1.2,60
313,13,d,1,7.247999907,1,0,100,91,1,99,i42_100_R.jpg,d,100,Subject4,1,2019-10-16_10h13.25.202,MentalRotationFinal,3.1.2,60
314,14,d,1,4.332000017,1,0,100,95,1,99,i44_100_R.jpg,d,100,Subject4,1,2019-10-16_10h13.25.202,MentalRotationFinal,3.1.2,60
315,15,s,1,2.748000145,1,0,100,9,1,99,i5_0.jpg,s,0,Subject4,1,2019-10-16_10h13.25.202,MentalRotationFinal,3.1.2,60
316,16,s,1,1.71600008,1,0,100,58,1,99,i27_50.jpg,s,50,Subject4,1,2019-10-16_10h13.25.202,MentalRotationFinal,3.1.2,60
317,17,s,1,2.56400013,1,0,100,43,1,99,i20_50.jpg,s,50,Subject4,1,2019-10-16_10h13.25.202,MentalRotationFinal,3.1.2,60
318,18,d,1,3.366000175,1,0,100,25,1,99,i12_50_R.jpg,d,50,Subject4,1,2019-10-16_10h13.25.202,MentalRotationFinal,3.1.2,60
319,19,d,1,6.9459998610000016,1,0,100,76,1,99,i35_100_R.jpg,d,100,Subject4,1,2019-10-16_10h13.25.202,MentalRotationFinal,3.1.2,60
320,20,s,1,4.48300004,1,0,100,72,1,99,i33_150.jpg,s,150,Subject4,1,2019-10-16_10h13.25.202,MentalRotationFinal,3.1.2,60
321,21,s,1,2.617000103,1,0,100,36,1,99,i17_50.jpg,s,50,Subject4,1,2019-10-16_10h13.25.202,MentalRotationFinal,3.1.2,60
322,22,d,1,4.634000063,1,0,100,32,1,99,i15_50_R.jpg,d,50,Subject4,1,2019-10-16_10h13.25.202,MentalRotationFinal,3.1.2,60
323,23,s,1,1.5319998259999998,1,0,100,84,1,99,i39_0.jpg,s,0,Subject4,1,2019-10-16_10h13.25.202,MentalRotationFinal,3.1.2,60
324,24,s,1,8.569000006,1,0,100,68,1,99,i31_150.jpg,s,150,Subject4,1,2019-10-16_10h13.25.202,MentalRotationFinal,3.1.2,60
325,25,d,1,2.946000099,1,0,100,14,1,99,i7_50_R.jpg,d,50,Subject4,1,2019-10-16_10h13.25.202,MentalRotationFinal,3.1.2,60
326,26,s,1,4.517000198,1,0,100,24,1,99,i11_100.jpg,s,100,Subject4,1,2019-10-16_10h13.25.202,MentalRotationFinal,3.1.2,60
327,27,d,1,6.151000023,1,0,100,44,1,99,i20_150_R.jpg,d,150,Subject4,1,2019-10-16_10h13.25.202,MentalRotationFinal,3.1.2,60
328,28,s,1,3.763999939,1,0,100,6,1,99,i3_100.jpg,s,100,Subject4,1,2019-10-16_10h13.25.202,MentalRotationFinal,3.1.2,60
329,29,s,1,3.034000158,1,0,100,56,1,99,i26_50.jpg,s,50,Subject4,1,2019-10-16_10h13.25.202,MentalRotationFinal,3.1.2,60
330,30,d,1,2.4670000080000003,1,0,100,46,1,99,i21_150_R.jpg,d,150,Subject4,1,2019-10-16_10h13.25.202,MentalRotationFinal,3.1.2,60
331,31,s,1,3.0639998910000004,1,0,100,70,1,99,i32_150.jpg,s,150,Subject4,1,2019-10-16_10h13.25.202,MentalRotationFinal,3.1.2,60
332,32,s,1,8.501000166,1,0,100,88,1,99,i40_150.jpg,s,150,Subject4,1,2019-10-16_10h13.25.202,MentalRotationFinal,3.1.2,60
333,33,d,1,4.896999836,1,0,100,85,1,99,i39_100_R.jpg,d,100,Subject4,1,2019-10-16_10h13.25.202,MentalRotationFinal,3.1.2,60
334,34,s,1,2.181999922,1,0,100,75,1,99,i35_0.jpg,s,0,Subject4,1,2019-10-16_10h13.25.202,MentalRotationFinal,3.1.2,60
335,35,d,0,2.151000023,1,0,100,90,1,99,i41_150.jpg,s,150,Subject4,1,2019-10-16_10h13.25.202,MentalRotationFinal,3.1.2,60
336,36,d,1,2.98300004,1,0,100,5,1,99,i3_50_R.jpg,d,50,Subject4,1,2019-10-16_10h13.25.202,MentalRotationFinal,3.1.2,60
337,37,d,1,4.699999809,1,0,100,37,1,99,i17_150_R.jpg,d,150,Subject4,1,2019-10-16_10h13.25.202,MentalRotationFinal,3.1.2,60
338,38,s,1,2.046999931,1,0,100,45,1,99,i21_50.jpg,s,50,Subject4,1,2019-10-16_10h13.25.202,MentalRotationFinal,3.1.2,60
339,39,d,1,2.549000025,1,0,100,52,1,99,i24_150_R.jpg,d,150,Subject4,1,2019-10-16_10h13.25.202,MentalRotationFinal,3.1.2,60
340,40,d,1,2.866000175,1,0,100,87,1,99,i40_100_R.jpg,d,100,Subject4,1,2019-10-16_10h13.25.202,MentalRotationFinal,3.1.2,60
341,41,s,1,2.496999979,1,0,100,38,1,99,i18_50.jpg,s,50,Subject4,1,2019-10-16_10h13.25.202,MentalRotationFinal,3.1.2,60
342,42,s,1,2.083999872,1,0,100,41,1,99,i19_50.jpg,s,50,Subject4,1,2019-10-16_10h13.25.202,MentalRotationFinal,3.1.2,60
343,43,d,1,2.31400013,1,0,100,33,1,99,i15_150_R.jpg,d,150,Subject4,1,2019-10-16_10h13.25.202,MentalRotationFinal,3.1.2,60
344,44,s,1,13.19899988,1,0,100,86,1,99,i39_150.jpg,s,150,Subject4,1,2019-10-16_10h13.25.202,MentalRotationFinal,3.1.2,60
345,45,d,1,5.282999992,1,0,100,39,1,99,i18_150_R.jpg,d,150,Subject4,1,2019-10-16_10h13.25.202,MentalRotationFinal,3.1.2,60
346,46,s,1,3.964999914,1,0,100,63,1,99,i29_50.jpg,s,50,Subject4,1,2019-10-16_10h13.25.202,MentalRotationFinal,3.1.2,60
347,47,d,1,3.730999947,1,0,100,57,1,99,i26_150_R.jpg,d,150,Subject4,1,2019-10-16_10h13.25.202,MentalRotationFinal,3.1.2,60
348,48,d,0,11.05100012,1,0,100,77,1,99,i35_150.jpg,s,150,Subject4,1,2019-10-16_10h13.25.202,MentalRotationFinal,3.1.2,60
349,49,s,1,1.5160000319999998,1,0,100,51,1,99,i24_50.jpg,s,50,Subject4,1,2019-10-16_10h13.25.202,MentalRotationFinal,3.1.2,60
350,50,s,1,2.46600008,1,0,100,53,1,99,i25_0.jpg,s,0,Subject4,1,2019-10-16_10h13.25.202,MentalRotationFinal,3.1.2,60
351,51,s,1,2.664999962,1,0,100,83,1,99,i38_150.jpg,s,150,Subject4,1,2019-10-16_10h13.25.202,MentalRotationFinal,3.1.2,60
352,52,d,1,3.69900012,1,0,100,12,1,99,i6_50_R.jpg,d,50,Subject4,1,2019-10-16_10h13.25.202,MentalRotationFinal,3.1.2,60
353,53,d,1,2.401000023,1,0,100,96,1,99,i45_100_R.jpg,d,100,Subject4,1,2019-10-16_10h13.25.202,MentalRotationFinal,3.1.2,60
354,54,d,1,4.916000128,1,0,100,69,1,99,i32_100_R.jpg,d,100,Subject4,1,2019-10-16_10h13.25.202,MentalRotationFinal,3.1.2,60
355,55,d,1,3.230999947,1,0,100,1,1,99,i1_50_R.jpg,d,50,Subject4,1,2019-10-16_10h13.25.202,MentalRotationFinal,3.1.2,60
356,56,s,1,2.381000042,1,0,100,64,1,99,i29_150.jpg,s,150,Subject4,1,2019-10-16_10h13.25.202,MentalRotationFinal,3.1.2,60
357,57,s,1,6.8000001910000005,1,0,100,17,1,99,i8_100.jpg,s,100,Subject4,1,2019-10-16_10h13.25.202,MentalRotationFinal,3.1.2,60
358,58,s,1,2.149000168,1,0,100,92,1,99,i42_150.jpg,s,150,Subject4,1,2019-10-16_10h13.25.202,MentalRotationFinal,3.1.2,60
359,59,d,1,3.448999882,1,0,100,80,1,99,i37_100_R.jpg,d,100,Subject4,1,2019-10-16_10h13.25.202,MentalRotationFinal,3.1.2,60
360,60,s,1,1.348999977,1,0,100,40,1,99,i19_0.jpg,s,0,Subject4,1,2019-10-16_10h13.25.202,MentalRotationFinal,3.1.2,60
361,61,s,1,8.167999983,1,0,100,22,1,99,i10_100.jpg,s,100,Subject4,1,2019-10-16_10h13.25.202,MentalRotationFinal,3.1.2,60
362,62,s,1,4.065000057,1,0,100,13,1,99,i6_100.jpg,s,100,Subject4,1,2019-10-16_10h13.25.202,MentalRotationFinal,3.1.2,60
363,63,s,1,3.265999794,1,0,100,99,1,99,i48_100.jpg,s,100,Subject4,1,2019-10-16_10h13.25.202,MentalRotationFinal,3.1.2,60
364,64,s,1,4.717999935,1,0,100,4,1,99,i2_100.jpg,s,100,Subject4,1,2019-10-16_10h13.25.202,MentalRotationFinal,3.1.2,60
365,65,d,1,4.3629999160000015,1,0,100,31,1,99,i14_150_R.jpg,d,150,Subject4,1,2019-10-16_10h13.25.202,MentalRotationFinal,3.1.2,60
366,66,d,1,2.23300004,1,0,100,28,1,99,i13_150_R.jpg,d,150,Subject4,1,2019-10-16_10h13.25.202,MentalRotationFinal,3.1.2,60
367,67,d,1,3.480999947,1,0,100,27,1,99,i13_50_R.jpg,d,50,Subject4,1,2019-10-16_10h13.25.202,MentalRotationFinal,3.1.2,60
368,68,d,1,2.7510001660000003,1,0,100,71,1,99,i33_100_R.jpg,d,100,Subject4,1,2019-10-16_10h13.25.202,MentalRotationFinal,3.1.2,60
369,69,d,1,4.01699996,1,0,100,19,1,99,i9_50_R.jpg,d,50,Subject4,1,2019-10-16_10h13.25.202,MentalRotationFinal,3.1.2,60
370,70,d,1,3.565999985,1,0,100,10,1,99,i5_50_R.jpg,d,50,Subject4,1,2019-10-16_10h13.25.202,MentalRotationFinal,3.1.2,60
371,71,s,1,1.7640001769999998,1,0,100,29,1,99,i14_0.jpg,s,0,Subject4,1,2019-10-16_10h13.25.202,MentalRotationFinal,3.1.2,60
372,72,d,1,2.633999825,1,0,100,3,1,99,i2_50_R.jpg,d,50,Subject4,1,2019-10-16_10h13.25.202,MentalRotationFinal,3.1.2,60
373,73,s,1,2.131999969,1,0,100,65,1,99,i30_50.jpg,s,50,Subject4,1,2019-10-16_10h13.25.202,MentalRotationFinal,3.1.2,60
374,74,s,1,1.549000025,1,0,100,18,1,99,i9_0.jpg,s,0,Subject4,1,2019-10-16_10h13.25.202,MentalRotationFinal,3.1.2,60
375,75,s,1,3.032999992,1,0,100,26,1,99,i12_100.jpg,s,100,Subject4,1,2019-10-16_10h13.25.202,MentalRotationFinal,3.1.2,60
376,76,d,0,7.848999977,1,0,100,81,1,99,i37_150.jpg,s,150,Subject4,1,2019-10-16_10h13.25.202,MentalRotationFinal,3.1.2,60
377,77,d,1,2.914000034,1,0,100,50,1,99,i23_150_R.jpg,d,150,Subject4,1,2019-10-16_10h13.25.202,MentalRotationFinal,3.1.2,60
378,78,d,1,4.518000126,1,0,100,78,1,99,i36_100_R.jpg,d,100,Subject4,1,2019-10-16_10h13.25.202,MentalRotationFinal,3.1.2,60
379,79,s,1,6.933000087999999,1,0,100,79,1,99,i36_150.jpg,s,150,Subject4,1,2019-10-16_10h13.25.202,MentalRotationFinal,3.1.2,60
380,80,d,0,3.299999952,1,0,100,47,1,99,i22_50.jpg,s,50,Subject4,1,2019-10-16_10h13.25.202,MentalRotationFinal,3.1.2,60
381,81,s,0,9.250999927999999,1,0,100,55,1,99,i25_150_R.jpg,d,150,Subject4,1,2019-10-16_10h13.25.202,MentalRotationFinal,3.1.2,60
382,82,s,1,3.383000135,1,0,100,8,1,99,i4_100.jpg,s,100,Subject4,1,2019-10-16_10h13.25.202,MentalRotationFinal,3.1.2,60
383,83,d,1,2.980000019,1,0,100,48,1,99,i22_150_R.jpg,d,150,Subject4,1,2019-10-16_10h13.25.202,MentalRotationFinal,3.1.2,60
384,84,s,1,6.683000087999999,1,0,100,54,1,99,i25_50.jpg,s,50,Subject4,1,2019-10-16_10h13.25.202,MentalRotationFinal,3.1.2,60
385,85,d,0,1.603999853,1,0,100,34,1,99,i16_50.jpg,s,50,Subject4,1,2019-10-16_10h13.25.202,MentalRotationFinal,3.1.2,60
386,86,d,1,4.185000181,1,0,100,42,1,99,i19_150_R.jpg,d,150,Subject4,1,2019-10-16_10h13.25.202,MentalRotationFinal,3.1.2,60
387,87,s,1,7.648999928999999,1,0,100,11,1,99,i5_100.jpg,s,100,Subject4,1,2019-10-16_10h13.25.202,MentalRotationFinal,3.1.2,60
388,88,d,1,7.450000048,1,0,100,59,1,99,i27_150_R.jpg,d,150,Subject4,1,2019-10-16_10h13.25.202,MentalRotationFinal,3.1.2,60
389,89,s,1,4.950000048,1,0,100,15,1,99,i7_100.jpg,s,100,Subject4,1,2019-10-16_10h13.25.202,MentalRotationFinal,3.1.2,60
390,90,d,1,4.03000021,1,0,100,82,1,99,i38_100_R.jpg,d,100,Subject4,1,2019-10-16_10h13.25.202,MentalRotationFinal,3.1.2,60
391,91,s,1,2.082000017,1,0,100,49,1,99,i23_50.jpg,s,50,Subject4,1,2019-10-16_10h13.25.202,MentalRotationFinal,3.1.2,60
392,92,s,1,6.064999819,1,0,100,97,1,99,i46_100.jpg,s,100,Subject4,1,2019-10-16_10h13.25.202,MentalRotationFinal,3.1.2,60
393,93,d,1,3.366999865,1,0,100,73,1,99,i34_100_R.jpg,d,100,Subject4,1,2019-10-16_10h13.25.202,MentalRotationFinal,3.1.2,60
394,94,d,0,5.234000206,1,0,100,98,1,99,i47_100.jpg,s,100,Subject4,1,2019-10-16_10h13.25.202,MentalRotationFinal,3.1.2,60
395,95,s,1,1.799000025,1,0,100,61,1,99,i28_150.jpg,s,150,Subject4,1,2019-10-16_10h13.25.202,MentalRotationFinal,3.1.2,60
396,96,d,1,3.01699996,1,0,100,16,1,99,i8_50_R.jpg,d,50,Subject4,1,2019-10-16_10h13.25.202,MentalRotationFinal,3.1.2,60
397,97,s,1,1.4330000880000002,1,0,100,94,1,99,i44_0.jpg,s,0,Subject4,1,2019-10-16_10h13.25.202,MentalRotationFinal,3.1.2,60
398,98,s,1,2.000999928,1,0,100,0,1,99,i1_0.jpg,s,0,Subject4,1,2019-10-16_10h13.25.202,MentalRotationFinal,3.1.2,60
399,99,s,1,3.48300004,1,0,100,20,1,99,i9_100.jpg,s,100,Subject4,1,2019-10-16_10h13.25.202,MentalRotationFinal,3.1.2,60
400,0,s,1,5.335999966,1,0,100,99,1,99,i48_100.jpg,s,100,Subject5,1,2019-10-16_10h07.35.155,MentalRotationFinal,3.1.2,60
401,1,s,1,2.427000046,1,0,100,40,1,99,i19_0.jpg,s,0,Subject5,1,2019-10-16_10h07.35.155,MentalRotationFinal,3.1.2,60
402,2,d,1,8.392999887,1,0,100,57,1,99,i26_150_R.jpg,d,150,Subject5,1,2019-10-16_10h07.35.155,MentalRotationFinal,3.1.2,60
403,3,s,1,4.915999889,1,0,100,63,1,99,i29_50.jpg,s,50,Subject5,1,2019-10-16_10h07.35.155,MentalRotationFinal,3.1.2,60
404,4,d,1,5.414000034,1,0,100,10,1,99,i5_50_R.jpg,d,50,Subject5,1,2019-10-16_10h07.35.155,MentalRotationFinal,3.1.2,60
405,5,d,1,7.378999949,1,0,100,46,1,99,i21_150_R.jpg,d,150,Subject5,1,2019-10-16_10h07.35.155,MentalRotationFinal,3.1.2,60
406,6,d,1,4.905999898999999,1,0,100,25,1,99,i12_50_R.jpg,d,50,Subject5,1,2019-10-16_10h07.35.155,MentalRotationFinal,3.1.2,60
407,7,s,1,5.394000052999999,1,0,100,4,1,99,i2_100.jpg,s,100,Subject5,1,2019-10-16_10h07.35.155,MentalRotationFinal,3.1.2,60
408,8,d,1,2.960000038,1,0,100,39,1,99,i18_150_R.jpg,d,150,Subject5,1,2019-10-16_10h07.35.155,MentalRotationFinal,3.1.2,60
409,9,d,0,4.892999887,1,0,100,13,1,99,i6_100.jpg,s,100,Subject5,1,2019-10-16_10h07.35.155,MentalRotationFinal,3.1.2,60
410,10,s,1,3.440000057,1,0,100,26,1,99,i12_100.jpg,s,100,Subject5,1,2019-10-16_10h07.35.155,MentalRotationFinal,3.1.2,60
411,11,d,1,5.409999847000001,1,0,100,89,1,99,i41_100_R.jpg,d,100,Subject5,1,2019-10-16_10h07.35.155,MentalRotationFinal,3.1.2,60
412,12,d,1,9.366000175,1,0,100,87,1,99,i40_100_R.jpg,d,100,Subject5,1,2019-10-16_10h07.35.155,MentalRotationFinal,3.1.2,60
413,13,d,1,5.402000189,1,0,100,19,1,99,i9_50_R.jpg,d,50,Subject5,1,2019-10-16_10h07.35.155,MentalRotationFinal,3.1.2,60
414,14,d,1,0.004999876,1,0,100,69,1,99,i32_100_R.jpg,d,100,Subject5,1,2019-10-16_10h07.35.155,MentalRotationFinal,3.1.2,60
415,15,d,1,12.29699993,1,0,100,21,1,99,i10_50_R.jpg,d,50,Subject5,1,2019-10-16_10h07.35.155,MentalRotationFinal,3.1.2,60
416,16,d,1,6.3949999810000016,1,0,100,35,1,99,i16_150_R.jpg,d,150,Subject5,1,2019-10-16_10h07.35.155,MentalRotationFinal,3.1.2,60
417,17,d,1,4.411999941,1,0,100,30,1,99,i14_50_R.jpg,d,50,Subject5,1,2019-10-16_10h07.35.155,MentalRotationFinal,3.1.2,60
418,18,s,1,7.878000021,1,0,100,77,1,99,i35_150.jpg,s,150,Subject5,1,2019-10-16_10h07.35.155,MentalRotationFinal,3.1.2,60
419,19,s,1,2.440000057,1,0,100,53,1,99,i25_0.jpg,s,0,Subject5,1,2019-10-16_10h07.35.155,MentalRotationFinal,3.1.2,60
420,20,s,1,5.890000105,1,0,100,90,1,99,i41_150.jpg,s,150,Subject5,1,2019-10-16_10h07.35.155,MentalRotationFinal,3.1.2,60
421,21,d,1,5.417999983,1,0,100,31,1,99,i14_150_R.jpg,d,150,Subject5,1,2019-10-16_10h07.35.155,MentalRotationFinal,3.1.2,60
422,22,s,1,4.910000086,1,0,100,38,1,99,i18_50.jpg,s,50,Subject5,1,2019-10-16_10h07.35.155,MentalRotationFinal,3.1.2,60
423,23,s,1,3.426000118,1,0,100,8,1,99,i4_100.jpg,s,100,Subject5,1,2019-10-16_10h07.35.155,MentalRotationFinal,3.1.2,60
424,24,s,1,3.428999901,1,0,100,17,1,99,i8_100.jpg,s,100,Subject5,1,2019-10-16_10h07.35.155,MentalRotationFinal,3.1.2,60
425,25,d,1,2.424999952,1,0,100,96,1,99,i45_100_R.jpg,d,100,Subject5,1,2019-10-16_10h07.35.155,MentalRotationFinal,3.1.2,60
426,26,d,1,8.394999981,1,0,100,73,1,99,i34_100_R.jpg,d,100,Subject5,1,2019-10-16_10h07.35.155,MentalRotationFinal,3.1.2,60
427,27,s,1,1.148000002,1,0,100,94,1,99,i44_0.jpg,s,0,Subject5,1,2019-10-16_10h07.35.155,MentalRotationFinal,3.1.2,60
428,28,d,1,3.231000185,1,0,100,76,1,99,i35_100_R.jpg,d,100,Subject5,1,2019-10-16_10h07.35.155,MentalRotationFinal,3.1.2,60
429,29,d,1,8.875,1,0,100,44,1,99,i20_150_R.jpg,d,150,Subject5,1,2019-10-16_10h07.35.155,MentalRotationFinal,3.1.2,60
430,30,s,1,6.391000032000001,1,0,100,24,1,99,i11_100.jpg,s,100,Subject5,1,2019-10-16_10h07.35.155,MentalRotationFinal,3.1.2,60
431,31,s,0,5.90199995,1,0,100,42,1,99,i19_150_R.jpg,d,150,Subject5,1,2019-10-16_10h07.35.155,MentalRotationFinal,3.1.2,60
432,32,d,1,7.369999886,1,0,100,48,1,99,i22_150_R.jpg,d,150,Subject5,1,2019-10-16_10h07.35.155,MentalRotationFinal,3.1.2,60
433,33,s,1,6.414999962,1,0,100,66,1,99,i30_150.jpg,s,150,Subject5,1,2019-10-16_10h07.35.155,MentalRotationFinal,3.1.2,60
434,34,d,1,4.911999941,1,0,100,55,1,99,i25_150_R.jpg,d,150,Subject5,1,2019-10-16_10h07.35.155,MentalRotationFinal,3.1.2,60
435,35,d,1,7.384000062999999,1,0,100,91,1,99,i42_100_R.jpg,d,100,Subject5,1,2019-10-16_10h07.35.155,MentalRotationFinal,3.1.2,60
436,36,s,1,3.930999994,1,0,100,49,1,99,i23_50.jpg,s,50,Subject5,1,2019-10-16_10h07.35.155,MentalRotationFinal,3.1.2,60
437,37,d,1,17.77699995,1,0,100,82,1,99,i38_100_R.jpg,d,100,Subject5,1,2019-10-16_10h07.35.155,MentalRotationFinal,3.1.2,60
438,38,s,1,15.78900003,1,0,100,79,1,99,i36_150.jpg,s,150,Subject5,1,2019-10-16_10h07.35.155,MentalRotationFinal,3.1.2,60
439,39,s,1,3.4200000760000004,1,0,100,15,1,99,i7_100.jpg,s,100,Subject5,1,2019-10-16_10h07.35.155,MentalRotationFinal,3.1.2,60
440,40,s,1,2.955000162,1,0,100,41,1,99,i19_50.jpg,s,50,Subject5,1,2019-10-16_10h07.35.155,MentalRotationFinal,3.1.2,60
441,41,d,1,15.30200005,1,0,100,5,1,99,i3_50_R.jpg,d,50,Subject5,1,2019-10-16_10h07.35.155,MentalRotationFinal,3.1.2,60
442,42,s,1,8.850000142999999,1,0,100,43,1,99,i20_50.jpg,s,50,Subject5,1,2019-10-16_10h07.35.155,MentalRotationFinal,3.1.2,60
443,43,d,1,14.30800009,1,0,100,85,1,99,i39_100_R.jpg,d,100,Subject5,1,2019-10-16_10h07.35.155,MentalRotationFinal,3.1.2,60
444,44,d,0,3.932999849,1,0,100,47,1,99,i22_50.jpg,s,50,Subject5,1,2019-10-16_10h07.35.155,MentalRotationFinal,3.1.2,60
445,45,d,1,6.898000002000001,1,0,100,12,1,99,i6_50_R.jpg,d,50,Subject5,1,2019-10-16_10h07.35.155,MentalRotationFinal,3.1.2,60
446,46,s,1,1.588000059,1,0,100,0,1,99,i1_0.jpg,s,0,Subject5,1,2019-10-16_10h07.35.155,MentalRotationFinal,3.1.2,60
447,47,s,1,1.276000023,1,0,100,18,1,99,i9_0.jpg,s,0,Subject5,1,2019-10-16_10h07.35.155,MentalRotationFinal,3.1.2,60
448,48,d,0,1.693000078,1,0,100,34,1,99,i16_50.jpg,s,50,Subject5,1,2019-10-16_10h07.35.155,MentalRotationFinal,3.1.2,60
449,49,s,1,1.249000072,1,0,100,75,1,99,i35_0.jpg,s,0,Subject5,1,2019-10-16_10h07.35.155,MentalRotationFinal,3.1.2,60
450,50,d,1,5.9049999710000005,1,0,100,14,1,99,i7_50_R.jpg,d,50,Subject5,1,2019-10-16_10h07.35.155,MentalRotationFinal,3.1.2,60
451,51,s,1,14.31299996,1,0,100,58,1,99,i27_50.jpg,s,50,Subject5,1,2019-10-16_10h07.35.155,MentalRotationFinal,3.1.2,60
452,52,d,1,4.424000025,1,0,100,33,1,99,i15_150_R.jpg,d,150,Subject5,1,2019-10-16_10h07.35.155,MentalRotationFinal,3.1.2,60
453,53,d,1,13.35800004,1,0,100,37,1,99,i17_150_R.jpg,d,150,Subject5,1,2019-10-16_10h07.35.155,MentalRotationFinal,3.1.2,60
454,54,d,1,15.78700018,1,0,100,93,1,99,i43_100_R.jpg,d,100,Subject5,1,2019-10-16_10h07.35.155,MentalRotationFinal,3.1.2,60
455,55,s,1,9.845999956,1,0,100,68,1,99,i31_150.jpg,s,150,Subject5,1,2019-10-16_10h07.35.155,MentalRotationFinal,3.1.2,60
456,56,s,1,3.914999962,1,0,100,6,1,99,i3_100.jpg,s,100,Subject5,1,2019-10-16_10h07.35.155,MentalRotationFinal,3.1.2,60
457,57,s,1,2.93599987,1,0,100,60,1,99,i28_50.jpg,s,50,Subject5,1,2019-10-16_10h07.35.155,MentalRotationFinal,3.1.2,60
458,58,s,1,4.904000044,1,0,100,74,1,99,i34_150.jpg,s,150,Subject5,1,2019-10-16_10h07.35.155,MentalRotationFinal,3.1.2,60
459,59,d,1,9.356000185,1,0,100,27,1,99,i13_50_R.jpg,d,50,Subject5,1,2019-10-16_10h07.35.155,MentalRotationFinal,3.1.2,60
460,60,d,0,1.696000099,1,0,100,51,1,99,i24_50.jpg,s,50,Subject5,1,2019-10-16_10h07.35.155,MentalRotationFinal,3.1.2,60
461,61,d,1,10.11999989,1,0,100,67,1,99,i31_100_R.jpg,d,100,Subject5,1,2019-10-16_10h07.35.155,MentalRotationFinal,3.1.2,60
462,62,s,1,8.86500001,1,0,100,11,1,99,i5_100.jpg,s,100,Subject5,1,2019-10-16_10h07.35.155,MentalRotationFinal,3.1.2,60
463,63,d,1,4.416000128,1,0,100,80,1,99,i37_100_R.jpg,d,100,Subject5,1,2019-10-16_10h07.35.155,MentalRotationFinal,3.1.2,60
464,64,d,1,3.911000013,1,0,100,32,1,99,i15_50_R.jpg,d,50,Subject5,1,2019-10-16_10h07.35.155,MentalRotationFinal,3.1.2,60
465,65,d,1,4.412000179,1,0,100,3,1,99,i2_50_R.jpg,d,50,Subject5,1,2019-10-16_10h07.35.155,MentalRotationFinal,3.1.2,60
466,66,d,1,4.909999847,1,0,100,78,1,99,i36_100_R.jpg,d,100,Subject5,1,2019-10-16_10h07.35.155,MentalRotationFinal,3.1.2,60
467,67,s,1,4.411999941,1,0,100,56,1,99,i26_50.jpg,s,50,Subject5,1,2019-10-16_10h07.35.155,MentalRotationFinal,3.1.2,60
468,68,s,0,11.8499999,1,0,100,59,1,99,i27_150_R.jpg,d,150,Subject5,1,2019-10-16_10h07.35.155,MentalRotationFinal,3.1.2,60
469,69,s,1,7.389999866,1,0,100,61,1,99,i28_150.jpg,s,150,Subject5,1,2019-10-16_10h07.35.155,MentalRotationFinal,3.1.2,60
470,70,s,1,2.926000118,1,0,100,20,1,99,i9_100.jpg,s,100,Subject5,1,2019-10-16_10h07.35.155,MentalRotationFinal,3.1.2,60
471,71,s,1,1.114000082,1,0,100,29,1,99,i14_0.jpg,s,0,Subject5,1,2019-10-16_10h07.35.155,MentalRotationFinal,3.1.2,60
472,72,s,1,7.241000175,1,0,100,70,1,99,i32_150.jpg,s,150,Subject5,1,2019-10-16_10h07.35.155,MentalRotationFinal,3.1.2,60
473,73,s,1,1.606999874,1,0,100,81,1,99,i37_150.jpg,s,150,Subject5,1,2019-10-16_10h07.35.155,MentalRotationFinal,3.1.2,60
474,74,s,1,2.7680001260000004,1,0,100,83,1,99,i38_150.jpg,s,150,Subject5,1,2019-10-16_10h07.35.155,MentalRotationFinal,3.1.2,60
475,75,s,1,1.054000139,1,0,100,62,1,99,i29_0.jpg,s,0,Subject5,1,2019-10-16_10h07.35.155,MentalRotationFinal,3.1.2,60
476,76,s,1,2.315999985,1,0,100,92,1,99,i42_150.jpg,s,150,Subject5,1,2019-10-16_10h07.35.155,MentalRotationFinal,3.1.2,60
477,77,d,1,9.363000154,1,0,100,7,1,99,i4_50_R.jpg,d,50,Subject5,1,2019-10-16_10h07.35.155,MentalRotationFinal,3.1.2,60
478,78,d,0,3.427999973,1,0,100,45,1,99,i21_50.jpg,s,50,Subject5,1,2019-10-16_10h07.35.155,MentalRotationFinal,3.1.2,60
479,79,s,0,8.872999907,1,0,100,71,1,99,i33_100_R.jpg,d,100,Subject5,1,2019-10-16_10h07.35.155,MentalRotationFinal,3.1.2,60
480,80,s,1,6.883000135,1,0,100,88,1,99,i40_150.jpg,s,150,Subject5,1,2019-10-16_10h07.35.155,MentalRotationFinal,3.1.2,60
481,81,d,1,11.36299992,1,0,100,23,1,99,i11_50_R.jpg,d,50,Subject5,1,2019-10-16_10h07.35.155,MentalRotationFinal,3.1.2,60
482,82,s,1,7.885999917999999,1,0,100,65,1,99,i30_50.jpg,s,50,Subject5,1,2019-10-16_10h07.35.155,MentalRotationFinal,3.1.2,60
483,83,s,0,13.34099984,1,0,100,50,1,99,i23_150_R.jpg,d,150,Subject5,1,2019-10-16_10h07.35.155,MentalRotationFinal,3.1.2,60
484,84,s,0,7.880000113999999,1,0,100,95,1,99,i44_100_R.jpg,d,100,Subject5,1,2019-10-16_10h07.35.155,MentalRotationFinal,3.1.2,60
485,85,s,1,6.88499999,1,0,100,97,1,99,i46_100.jpg,s,100,Subject5,1,2019-10-16_10h07.35.155,MentalRotationFinal,3.1.2,60
486,86,s,1,1.071000099,1,0,100,84,1,99,i39_0.jpg,s,0,Subject5,1,2019-10-16_10h07.35.155,MentalRotationFinal,3.1.2,60
487,87,s,1,2.796999931,1,0,100,54,1,99,i25_50.jpg,s,50,Subject5,1,2019-10-16_10h07.35.155,MentalRotationFinal,3.1.2,60
488,88,d,1,1.41899991,1,0,100,1,1,99,i1_50_R.jpg,d,50,Subject5,1,2019-10-16_10h07.35.155,MentalRotationFinal,3.1.2,60
489,89,d,1,2.963000059,1,0,100,28,1,99,i13_150_R.jpg,d,150,Subject5,1,2019-10-16_10h07.35.155,MentalRotationFinal,3.1.2,60
490,90,d,1,14.31599998,1,0,100,52,1,99,i24_150_R.jpg,d,150,Subject5,1,2019-10-16_10h07.35.155,MentalRotationFinal,3.1.2,60
491,91,s,1,3.4270000460000003,1,0,100,98,1,99,i47_100.jpg,s,100,Subject5,1,2019-10-16_10h07.35.155,MentalRotationFinal,3.1.2,60
492,92,s,1,1.871999979,1,0,100,9,1,99,i5_0.jpg,s,0,Subject5,1,2019-10-16_10h07.35.155,MentalRotationFinal,3.1.2,60
493,93,s,1,1.97300005,1,0,100,22,1,99,i10_100.jpg,s,100,Subject5,1,2019-10-16_10h07.35.155,MentalRotationFinal,3.1.2,60
494,94,s,1,2.946000099,1,0,100,64,1,99,i29_150.jpg,s,150,Subject5,1,2019-10-16_10h07.35.155,MentalRotationFinal,3.1.2,60
495,95,s,0,1.993999958,1,0,100,16,1,99,i8_50_R.jpg,d,50,Subject5,1,2019-10-16_10h07.35.155,MentalRotationFinal,3.1.2,60
496,96,s,1,3.370000124,1,0,100,2,1,99,i1_100.jpg,s,100,Subject5,1,2019-10-16_10h07.35.155,MentalRotationFinal,3.1.2,60
497,97,s,1,6.399999857,1,0,100,72,1,99,i33_150.jpg,s,150,Subject5,1,2019-10-16_10h07.35.155,MentalRotationFinal,3.1.2,60
498,98,s,1,3.447000027,1,0,100,86,1,99,i39_150.jpg,s,150,Subject5,1,2019-10-16_10h07.35.155,MentalRotationFinal,3.1.2,60
499,99,s,1,4.4049999710000005,1,0,100,36,1,99,i17_50.jpg,s,50,Subject5,1,2019-10-16_10h07.35.155,MentalRotationFinal,3.1.2,60
500,0,s,1,10.89899993,1,0,100,83,1,99,i38_150.jpg,s,150,Subject6,1,2019-10-16_10h06.42.945,MentalRotationFinal,3.1.2,60
501,1,d,1,7.885999917999999,1,0,100,48,1,99,i22_150_R.jpg,d,150,Subject6,1,2019-10-16_10h06.42.945,MentalRotationFinal,3.1.2,60
502,2,d,1,5.923000097,1,0,100,19,1,99,i9_50_R.jpg,d,50,Subject6,1,2019-10-16_10h06.42.945,MentalRotationFinal,3.1.2,60
503,3,d,1,10.34099984,1,0,100,96,1,99,i45_100_R.jpg,d,100,Subject6,1,2019-10-16_10h06.42.945,MentalRotationFinal,3.1.2,60
504,4,d,1,5.486999989,1,0,100,52,1,99,i24_150_R.jpg,d,150,Subject6,1,2019-10-16_10h06.42.945,MentalRotationFinal,3.1.2,60
505,5,s,1,7.270999907999999,1,0,100,90,1,99,i41_150.jpg,s,150,Subject6,1,2019-10-16_10h06.42.945,MentalRotationFinal,3.1.2,60
506,6,s,1,5.756000042,1,0,100,54,1,99,i25_50.jpg,s,50,Subject6,1,2019-10-16_10h06.42.945,MentalRotationFinal,3.1.2,60
507,7,s,1,6.371999979,1,0,100,2,1,99,i1_100.jpg,s,100,Subject6,1,2019-10-16_10h06.42.945,MentalRotationFinal,3.1.2,60
508,8,d,0,25.09700012,1,0,100,77,1,99,i35_150.jpg,s,150,Subject6,1,2019-10-16_10h06.42.945,MentalRotationFinal,3.1.2,60
509,9,d,1,14.71000004,1,0,100,57,1,99,i26_150_R.jpg,d,150,Subject6,1,2019-10-16_10h06.42.945,MentalRotationFinal,3.1.2,60
510,10,s,1,9.340000153,1,0,100,17,1,99,i8_100.jpg,s,100,Subject6,1,2019-10-16_10h06.42.945,MentalRotationFinal,3.1.2,60
511,11,s,1,6.09100008,1,0,100,47,1,99,i22_50.jpg,s,50,Subject6,1,2019-10-16_10h06.42.945,MentalRotationFinal,3.1.2,60
512,12,s,1,17.91400003,1,0,100,68,1,99,i31_150.jpg,s,150,Subject6,1,2019-10-16_10h06.42.945,MentalRotationFinal,3.1.2,60
513,13,d,1,8.5,1,0,100,10,1,99,i5_50_R.jpg,d,50,Subject6,1,2019-10-16_10h06.42.945,MentalRotationFinal,3.1.2,60
514,14,d,1,8.890000105,1,0,100,30,1,99,i14_50_R.jpg,d,50,Subject6,1,2019-10-16_10h06.42.945,MentalRotationFinal,3.1.2,60
515,15,d,1,10.52100015,1,0,100,50,1,99,i23_150_R.jpg,d,150,Subject6,1,2019-10-16_10h06.42.945,MentalRotationFinal,3.1.2,60
516,16,d,1,13.45700002,1,0,100,23,1,99,i11_50_R.jpg,d,50,Subject6,1,2019-10-16_10h06.42.945,MentalRotationFinal,3.1.2,60
517,17,s,1,9.940000057,1,0,100,20,1,99,i9_100.jpg,s,100,Subject6,1,2019-10-16_10h06.42.945,MentalRotationFinal,3.1.2,60
518,18,d,1,10.0400002,1,0,100,71,1,99,i33_100_R.jpg,d,100,Subject6,1,2019-10-16_10h06.42.945,MentalRotationFinal,3.1.2,60
519,19,d,0,15.07500005,1,0,100,86,1,99,i39_150.jpg,s,150,Subject6,1,2019-10-16_10h06.42.945,MentalRotationFinal,3.1.2,60
520,20,d,0,21.87800002,1,0,100,97,1,99,i46_100.jpg,s,100,Subject6,1,2019-10-16_10h06.42.945,MentalRotationFinal,3.1.2,60
521,21,d,1,12.60699987,1,0,100,67,1,99,i31_100_R.jpg,d,100,Subject6,1,2019-10-16_10h06.42.945,MentalRotationFinal,3.1.2,60
522,22,d,1,9.072000027,1,0,100,80,1,99,i37_100_R.jpg,d,100,Subject6,1,2019-10-16_10h06.42.945,MentalRotationFinal,3.1.2,60
523,23,d,1,11.20700002,1,0,100,7,1,99,i4_50_R.jpg,d,50,Subject6,1,2019-10-16_10h06.42.945,MentalRotationFinal,3.1.2,60
524,24,s,1,13.49499989,1,0,100,74,1,99,i34_150.jpg,s,150,Subject6,1,2019-10-16_10h06.42.945,MentalRotationFinal,3.1.2,60
525,25,s,1,18.64399981,1,0,100,13,1,99,i6_100.jpg,s,100,Subject6,1,2019-10-16_10h06.42.945,MentalRotationFinal,3.1.2,60
526,26,s,1,8.873999834,1,0,100,66,1,99,i30_150.jpg,s,150,Subject6,1,2019-10-16_10h06.42.945,MentalRotationFinal,3.1.2,60
527,27,s,1,3.754999876,1,0,100,38,1,99,i18_50.jpg,s,50,Subject6,1,2019-10-16_10h06.42.945,MentalRotationFinal,3.1.2,60
528,28,d,1,5.524000168,1,0,100,28,1,99,i13_150_R.jpg,d,150,Subject6,1,2019-10-16_10h06.42.945,MentalRotationFinal,3.1.2,60
529,29,s,1,6.421000004,1,0,100,94,1,99,i44_0.jpg,s,0,Subject6,1,2019-10-16_10h06.42.945,MentalRotationFinal,3.1.2,60
530,30,d,1,4.707000017,1,0,100,95,1,99,i44_100_R.jpg,d,100,Subject6,1,2019-10-16_10h06.42.945,MentalRotationFinal,3.1.2,60
531,31,s,1,3.669999838,1,0,100,70,1,99,i32_150.jpg,s,150,Subject6,1,2019-10-16_10h06.42.945,MentalRotationFinal,3.1.2,60
532,32,d,1,4.959000111,1,0,100,93,1,99,i43_100_R.jpg,d,100,Subject6,1,2019-10-16_10h06.42.945,MentalRotationFinal,3.1.2,60
533,33,d,1,7.454999924,1,0,100,33,1,99,i15_150_R.jpg,d,150,Subject6,1,2019-10-16_10h06.42.945,MentalRotationFinal,3.1.2,60
534,34,d,1,7.253999949,1,0,100,55,1,99,i25_150_R.jpg,d,150,Subject6,1,2019-10-16_10h06.42.945,MentalRotationFinal,3.1.2,60
535,35,s,0,7.472000122000001,1,0,100,44,1,99,i20_150_R.jpg,d,150,Subject6,1,2019-10-16_10h06.42.945,MentalRotationFinal,3.1.2,60
536,36,s,1,9.588999987000001,1,0,100,26,1,99,i12_100.jpg,s,100,Subject6,1,2019-10-16_10h06.42.945,MentalRotationFinal,3.1.2,60
537,37,s,1,4.519999981000001,1,0,100,75,1,99,i35_0.jpg,s,0,Subject6,1,2019-10-16_10h06.42.945,MentalRotationFinal,3.1.2,60
538,38,d,1,8.773999929,1,0,100,59,1,99,i27_150_R.jpg,d,150,Subject6,1,2019-10-16_10h06.42.945,MentalRotationFinal,3.1.2,60
539,39,d,1,6.088999987,1,0,100,35,1,99,i16_150_R.jpg,d,150,Subject6,1,2019-10-16_10h06.42.945,MentalRotationFinal,3.1.2,60
540,40,s,1,6.470999956,1,0,100,4,1,99,i2_100.jpg,s,100,Subject6,1,2019-10-16_10h06.42.945,MentalRotationFinal,3.1.2,60
541,41,d,1,4.322000027,1,0,100,85,1,99,i39_100_R.jpg,d,100,Subject6,1,2019-10-16_10h06.42.945,MentalRotationFinal,3.1.2,60
542,42,d,1,4.721000195,1,0,100,73,1,99,i34_100_R.jpg,d,100,Subject6,1,2019-10-16_10h06.42.945,MentalRotationFinal,3.1.2,60
543,43,s,1,6.638999939,1,0,100,63,1,99,i29_50.jpg,s,50,Subject6,1,2019-10-16_10h06.42.945,MentalRotationFinal,3.1.2,60
544,44,d,1,8.155999899,1,0,100,91,1,99,i42_100_R.jpg,d,100,Subject6,1,2019-10-16_10h06.42.945,MentalRotationFinal,3.1.2,60
545,45,s,1,2.738000154,1,0,100,18,1,99,i9_0.jpg,s,0,Subject6,1,2019-10-16_10h06.42.945,MentalRotationFinal,3.1.2,60
546,46,d,1,3.303999901,1,0,100,27,1,99,i13_50_R.jpg,d,50,Subject6,1,2019-10-16_10h06.42.945,MentalRotationFinal,3.1.2,60
547,47,s,1,3.906999826,1,0,100,60,1,99,i28_50.jpg,s,50,Subject6,1,2019-10-16_10h06.42.945,MentalRotationFinal,3.1.2,60
548,48,s,1,3.088000059,1,0,100,34,1,99,i16_50.jpg,s,50,Subject6,1,2019-10-16_10h06.42.945,MentalRotationFinal,3.1.2,60
549,49,d,1,10.49099994,1,0,100,78,1,99,i36_100_R.jpg,d,100,Subject6,1,2019-10-16_10h06.42.945,MentalRotationFinal,3.1.2,60
550,50,s,0,6.054999828,1,0,100,87,1,99,i40_100_R.jpg,d,100,Subject6,1,2019-10-16_10h06.42.945,MentalRotationFinal,3.1.2,60
551,51,d,1,5.103999853,1,0,100,37,1,99,i17_150_R.jpg,d,150,Subject6,1,2019-10-16_10h06.42.945,MentalRotationFinal,3.1.2,60
552,52,s,1,10.62399983,1,0,100,99,1,99,i48_100.jpg,s,100,Subject6,1,2019-10-16_10h06.42.945,MentalRotationFinal,3.1.2,60
553,53,s,1,3.605999947,1,0,100,6,1,99,i3_100.jpg,s,100,Subject6,1,2019-10-16_10h06.42.945,MentalRotationFinal,3.1.2,60
554,54,s,1,11.32400012,1,0,100,79,1,99,i36_150.jpg,s,150,Subject6,1,2019-10-16_10h06.42.945,MentalRotationFinal,3.1.2,60
555,55,s,1,14.62400007,1,0,100,49,1,99,i23_50.jpg,s,50,Subject6,1,2019-10-16_10h06.42.945,MentalRotationFinal,3.1.2,60
556,56,d,1,9.606999874,1,0,100,5,1,99,i3_50_R.jpg,d,50,Subject6,1,2019-10-16_10h06.42.945,MentalRotationFinal,3.1.2,60
557,57,s,1,4.121999979,1,0,100,43,1,99,i20_50.jpg,s,50,Subject6,1,2019-10-16_10h06.42.945,MentalRotationFinal,3.1.2,60
558,58,d,1,7.74000001,1,0,100,76,1,99,i35_100_R.jpg,d,100,Subject6,1,2019-10-16_10h06.42.945,MentalRotationFinal,3.1.2,60
559,59,d,1,4.287000179,1,0,100,16,1,99,i8_50_R.jpg,d,50,Subject6,1,2019-10-16_10h06.42.945,MentalRotationFinal,3.1.2,60
560,60,d,1,3.421000004,1,0,100,32,1,99,i15_50_R.jpg,d,50,Subject6,1,2019-10-16_10h06.42.945,MentalRotationFinal,3.1.2,60
561,61,s,1,9.491999865,1,0,100,88,1,99,i40_150.jpg,s,150,Subject6,1,2019-10-16_10h06.42.945,MentalRotationFinal,3.1.2,60
562,62,d,1,6.339999914,1,0,100,31,1,99,i14_150_R.jpg,d,150,Subject6,1,2019-10-16_10h06.42.945,MentalRotationFinal,3.1.2,60
563,63,s,1,9.940000057,1,0,100,22,1,99,i10_100.jpg,s,100,Subject6,1,2019-10-16_10h06.42.945,MentalRotationFinal,3.1.2,60
564,64,s,1,12.875,1,0,100,81,1,99,i37_150.jpg,s,150,Subject6,1,2019-10-16_10h06.42.945,MentalRotationFinal,3.1.2,60
565,65,s,1,4.572000027,1,0,100,51,1,99,i24_50.jpg,s,50,Subject6,1,2019-10-16_10h06.42.945,MentalRotationFinal,3.1.2,60
566,66,s,1,1.887000084,1,0,100,40,1,99,i19_0.jpg,s,0,Subject6,1,2019-10-16_10h06.42.945,MentalRotationFinal,3.1.2,60
567,67,s,1,6.6879999639999985,1,0,100,98,1,99,i47_100.jpg,s,100,Subject6,1,2019-10-16_10h06.42.945,MentalRotationFinal,3.1.2,60
568,68,s,1,4.102999926,1,0,100,92,1,99,i42_150.jpg,s,150,Subject6,1,2019-10-16_10h06.42.945,MentalRotationFinal,3.1.2,60
569,69,d,1,3.121999979,1,0,100,69,1,99,i32_100_R.jpg,d,100,Subject6,1,2019-10-16_10h06.42.945,MentalRotationFinal,3.1.2,60
570,70,s,1,7.99000001,1,0,100,8,1,99,i4_100.jpg,s,100,Subject6,1,2019-10-16_10h06.42.945,MentalRotationFinal,3.1.2,60
571,71,s,1,5.120000124,1,0,100,65,1,99,i30_50.jpg,s,50,Subject6,1,2019-10-16_10h06.42.945,MentalRotationFinal,3.1.2,60
572,72,d,1,3.072999954,1,0,100,12,1,99,i6_50_R.jpg,d,50,Subject6,1,2019-10-16_10h06.42.945,MentalRotationFinal,3.1.2,60
573,73,d,1,7.107000113,1,0,100,3,1,99,i2_50_R.jpg,d,50,Subject6,1,2019-10-16_10h06.42.945,MentalRotationFinal,3.1.2,60
574,74,s,0,7.557999849,1,0,100,82,1,99,i38_100_R.jpg,d,100,Subject6,1,2019-10-16_10h06.42.945,MentalRotationFinal,3.1.2,60
575,75,s,1,7.305999993999999,1,0,100,24,1,99,i11_100.jpg,s,100,Subject6,1,2019-10-16_10h06.42.945,MentalRotationFinal,3.1.2,60
576,76,s,1,3.153999805,1,0,100,62,1,99,i29_0.jpg,s,0,Subject6,1,2019-10-16_10h06.42.945,MentalRotationFinal,3.1.2,60
577,77,s,1,3.039000034,1,0,100,56,1,99,i26_50.jpg,s,50,Subject6,1,2019-10-16_10h06.42.945,MentalRotationFinal,3.1.2,60
578,78,s,1,2.220999956,1,0,100,9,1,99,i5_0.jpg,s,0,Subject6,1,2019-10-16_10h06.42.945,MentalRotationFinal,3.1.2,60
579,79,d,1,3.386999846,1,0,100,14,1,99,i7_50_R.jpg,d,50,Subject6,1,2019-10-16_10h06.42.945,MentalRotationFinal,3.1.2,60
580,80,s,1,1.670000076,1,0,100,53,1,99,i25_0.jpg,s,0,Subject6,1,2019-10-16_10h06.42.945,MentalRotationFinal,3.1.2,60
581,81,d,1,3.853999853,1,0,100,21,1,99,i10_50_R.jpg,d,50,Subject6,1,2019-10-16_10h06.42.945,MentalRotationFinal,3.1.2,60
582,82,d,1,3.503999949,1,0,100,46,1,99,i21_150_R.jpg,d,150,Subject6,1,2019-10-16_10h06.42.945,MentalRotationFinal,3.1.2,60
583,83,s,1,1.420000076,1,0,100,84,1,99,i39_0.jpg,s,0,Subject6,1,2019-10-16_10h06.42.945,MentalRotationFinal,3.1.2,60
584,84,d,1,3.471000195,1,0,100,89,1,99,i41_100_R.jpg,d,100,Subject6,1,2019-10-16_10h06.42.945,MentalRotationFinal,3.1.2,60
585,85,d,0,11.22399998,1,0,100,58,1,99,i27_50.jpg,s,50,Subject6,1,2019-10-16_10h06.42.945,MentalRotationFinal,3.1.2,60
586,86,d,0,2.7709999080000003,1,0,100,64,1,99,i29_150.jpg,s,150,Subject6,1,2019-10-16_10h06.42.945,MentalRotationFinal,3.1.2,60
587,87,s,1,1.086999893,1,0,100,0,1,99,i1_0.jpg,s,0,Subject6,1,2019-10-16_10h06.42.945,MentalRotationFinal,3.1.2,60
588,88,s,1,2.803999901,1,0,100,36,1,99,i17_50.jpg,s,50,Subject6,1,2019-10-16_10h06.42.945,MentalRotationFinal,3.1.2,60
589,89,s,1,3.972000122,1,0,100,61,1,99,i28_150.jpg,s,150,Subject6,1,2019-10-16_10h06.42.945,MentalRotationFinal,3.1.2,60
590,90,d,0,3.5049998760000003,1,0,100,15,1,99,i7_100.jpg,s,100,Subject6,1,2019-10-16_10h06.42.945,MentalRotationFinal,3.1.2,60
591,91,s,1,7.523000002000001,1,0,100,11,1,99,i5_100.jpg,s,100,Subject6,1,2019-10-16_10h06.42.945,MentalRotationFinal,3.1.2,60
592,92,d,1,2.266000032,1,0,100,25,1,99,i12_50_R.jpg,d,50,Subject6,1,2019-10-16_10h06.42.945,MentalRotationFinal,3.1.2,60
593,93,d,1,6.523000002000001,1,0,100,39,1,99,i18_150_R.jpg,d,150,Subject6,1,2019-10-16_10h06.42.945,MentalRotationFinal,3.1.2,60
594,94,s,1,2.720000029,1,0,100,45,1,99,i21_50.jpg,s,50,Subject6,1,2019-10-16_10h06.42.945,MentalRotationFinal,3.1.2,60
595,95,s,1,2.322000027,1,0,100,41,1,99,i19_50.jpg,s,50,Subject6,1,2019-10-16_10h06.42.945,MentalRotationFinal,3.1.2,60
596,96,s,0,4.555999994,1,0,100,42,1,99,i19_150_R.jpg,d,150,Subject6,1,2019-10-16_10h06.42.945,MentalRotationFinal,3.1.2,60
597,97,d,1,4.1870000360000015,1,0,100,1,1,99,i1_50_R.jpg,d,50,Subject6,1,2019-10-16_10h06.42.945,MentalRotationFinal,3.1.2,60
598,98,s,1,1.269000053,1,0,100,29,1,99,i14_0.jpg,s,0,Subject6,1,2019-10-16_10h06.42.945,MentalRotationFinal,3.1.2,60
599,99,s,1,4.322999954,1,0,100,72,1,99,i33_150.jpg,s,150,Subject6,1,2019-10-16_10h06.42.945,MentalRotationFinal,3.1.2,60
600,0,d,1,8.038000107,1,0,100,93,1,99,i43_100_R.jpg,d,100,Subject7,1,2019-10-16_10h06.55.109,MentalRotationFinal,3.1.2,60
601,1,s,1,2.302999973,1,0,100,54,1,99,i25_50.jpg,s,50,Subject7,1,2019-10-16_10h06.55.109,MentalRotationFinal,3.1.2,60
602,2,s,1,5.073999882,1,0,100,22,1,99,i10_100.jpg,s,100,Subject7,1,2019-10-16_10h06.55.109,MentalRotationFinal,3.1.2,60
603,3,d,1,5.192000151,1,0,100,1,1,99,i1_50_R.jpg,d,50,Subject7,1,2019-10-16_10h06.55.109,MentalRotationFinal,3.1.2,60
604,4,d,1,7.423000097,1,0,100,42,1,99,i19_150_R.jpg,d,150,Subject7,1,2019-10-16_10h06.55.109,MentalRotationFinal,3.1.2,60
605,5,d,1,4.273999929,1,0,100,52,1,99,i24_150_R.jpg,d,150,Subject7,1,2019-10-16_10h06.55.109,MentalRotationFinal,3.1.2,60
606,6,d,1,8.741999865,1,0,100,14,1,99,i7_50_R.jpg,d,50,Subject7,1,2019-10-16_10h06.55.109,MentalRotationFinal,3.1.2,60
607,7,d,1,12.15900016,1,0,100,67,1,99,i31_100_R.jpg,d,100,Subject7,1,2019-10-16_10h06.55.109,MentalRotationFinal,3.1.2,60
608,8,s,1,5.672999859,1,0,100,99,1,99,i48_100.jpg,s,100,Subject7,1,2019-10-16_10h06.55.109,MentalRotationFinal,3.1.2,60
609,9,s,1,13.7249999,1,0,100,79,1,99,i36_150.jpg,s,150,Subject7,1,2019-10-16_10h06.55.109,MentalRotationFinal,3.1.2,60
610,10,d,1,8.188000202000001,1,0,100,5,1,99,i3_50_R.jpg,d,50,Subject7,1,2019-10-16_10h06.55.109,MentalRotationFinal,3.1.2,60
611,11,s,1,4.674000025,1,0,100,75,1,99,i35_0.jpg,s,0,Subject7,1,2019-10-16_10h06.55.109,MentalRotationFinal,3.1.2,60
612,12,s,1,11.84299994,1,0,100,81,1,99,i37_150.jpg,s,150,Subject7,1,2019-10-16_10h06.55.109,MentalRotationFinal,3.1.2,60
613,13,s,1,14.71099997,1,0,100,66,1,99,i30_150.jpg,s,150,Subject7,1,2019-10-16_10h06.55.109,MentalRotationFinal,3.1.2,60
614,14,d,1,8.242000102999999,1,0,100,39,1,99,i18_150_R.jpg,d,150,Subject7,1,2019-10-16_10h06.55.109,MentalRotationFinal,3.1.2,60
615,15,d,1,13.37800002,1,0,100,69,1,99,i32_100_R.jpg,d,100,Subject7,1,2019-10-16_10h06.55.109,MentalRotationFinal,3.1.2,60
616,16,d,1,5.992000103,1,0,100,91,1,99,i42_100_R.jpg,d,100,Subject7,1,2019-10-16_10h06.55.109,MentalRotationFinal,3.1.2,60
617,17,d,1,13.52799988,1,0,100,73,1,99,i34_100_R.jpg,d,100,Subject7,1,2019-10-16_10h06.55.109,MentalRotationFinal,3.1.2,60
618,18,s,1,3.690999985,1,0,100,4,1,99,i2_100.jpg,s,100,Subject7,1,2019-10-16_10h06.55.109,MentalRotationFinal,3.1.2,60
619,19,s,1,4.491000175,1,0,100,0,1,99,i1_0.jpg,s,0,Subject7,1,2019-10-16_10h06.55.109,MentalRotationFinal,3.1.2,60
620,20,d,1,10.67700005,1,0,100,59,1,99,i27_150_R.jpg,d,150,Subject7,1,2019-10-16_10h06.55.109,MentalRotationFinal,3.1.2,60
621,21,d,1,7.507999897,1,0,100,30,1,99,i14_50_R.jpg,d,50,Subject7,1,2019-10-16_10h06.55.109,MentalRotationFinal,3.1.2,60
622,22,s,1,4.72300005,1,0,100,6,1,99,i3_100.jpg,s,100,Subject7,1,2019-10-16_10h06.55.109,MentalRotationFinal,3.1.2,60
623,23,d,1,10.81000018,1,0,100,87,1,99,i40_100_R.jpg,d,100,Subject7,1,2019-10-16_10h06.55.109,MentalRotationFinal,3.1.2,60
624,24,s,1,2.154999971,1,0,100,34,1,99,i16_50.jpg,s,50,Subject7,1,2019-10-16_10h06.55.109,MentalRotationFinal,3.1.2,60
625,25,s,1,2.907999992,1,0,100,41,1,99,i19_50.jpg,s,50,Subject7,1,2019-10-16_10h06.55.109,MentalRotationFinal,3.1.2,60
626,26,s,1,1.7899999619999998,1,0,100,45,1,99,i21_50.jpg,s,50,Subject7,1,2019-10-16_10h06.55.109,MentalRotationFinal,3.1.2,60
627,27,s,1,1.070999861,1,0,100,18,1,99,i9_0.jpg,s,0,Subject7,1,2019-10-16_10h06.55.109,MentalRotationFinal,3.1.2,60
628,28,d,1,2.272000074,1,0,100,95,1,99,i44_100_R.jpg,d,100,Subject7,1,2019-10-16_10h06.55.109,MentalRotationFinal,3.1.2,60
629,29,s,1,2.140000105,1,0,100,58,1,99,i27_50.jpg,s,50,Subject7,1,2019-10-16_10h06.55.109,MentalRotationFinal,3.1.2,60
630,30,s,1,4.588000059,1,0,100,26,1,99,i12_100.jpg,s,100,Subject7,1,2019-10-16_10h06.55.109,MentalRotationFinal,3.1.2,60
631,31,s,1,11.69400001,1,0,100,92,1,99,i42_150.jpg,s,150,Subject7,1,2019-10-16_10h06.55.109,MentalRotationFinal,3.1.2,60
632,32,s,1,2.805999994,1,0,100,65,1,99,i30_50.jpg,s,50,Subject7,1,2019-10-16_10h06.55.109,MentalRotationFinal,3.1.2,60
633,33,d,1,12.79399991,1,0,100,46,1,99,i21_150_R.jpg,d,150,Subject7,1,2019-10-16_10h06.55.109,MentalRotationFinal,3.1.2,60
634,34,s,1,6.208999872000001,1,0,100,11,1,99,i5_100.jpg,s,100,Subject7,1,2019-10-16_10h06.55.109,MentalRotationFinal,3.1.2,60
635,35,d,1,12.49399996,1,0,100,19,1,99,i9_50_R.jpg,d,50,Subject7,1,2019-10-16_10h06.55.109,MentalRotationFinal,3.1.2,60
636,36,d,1,2.937999964,1,0,100,16,1,99,i8_50_R.jpg,d,50,Subject7,1,2019-10-16_10h06.55.109,MentalRotationFinal,3.1.2,60
637,37,d,1,10.0940001,1,0,100,37,1,99,i17_150_R.jpg,d,150,Subject7,1,2019-10-16_10h06.55.109,MentalRotationFinal,3.1.2,60
638,38,d,1,2.45600009,1,0,100,55,1,99,i25_150_R.jpg,d,150,Subject7,1,2019-10-16_10h06.55.109,MentalRotationFinal,3.1.2,60
639,39,s,1,4.756999969,1,0,100,72,1,99,i33_150.jpg,s,150,Subject7,1,2019-10-16_10h06.55.109,MentalRotationFinal,3.1.2,60
640,40,s,1,6.322999954,1,0,100,24,1,99,i11_100.jpg,s,100,Subject7,1,2019-10-16_10h06.55.109,MentalRotationFinal,3.1.2,60
641,41,s,1,2.922999859,1,0,100,36,1,99,i17_50.jpg,s,50,Subject7,1,2019-10-16_10h06.55.109,MentalRotationFinal,3.1.2,60
642,42,d,1,4.558000088,1,0,100,3,1,99,i2_50_R.jpg,d,50,Subject7,1,2019-10-16_10h06.55.109,MentalRotationFinal,3.1.2,60
643,43,s,1,5.960000038,1,0,100,8,1,99,i4_100.jpg,s,100,Subject7,1,2019-10-16_10h06.55.109,MentalRotationFinal,3.1.2,60
644,44,s,1,4.34100008,1,0,100,83,1,99,i38_150.jpg,s,150,Subject7,1,2019-10-16_10h06.55.109,MentalRotationFinal,3.1.2,60
645,45,s,1,2.107000113,1,0,100,94,1,99,i44_0.jpg,s,0,Subject7,1,2019-10-16_10h06.55.109,MentalRotationFinal,3.1.2,60
646,46,d,1,2.906000137,1,0,100,32,1,99,i15_50_R.jpg,d,50,Subject7,1,2019-10-16_10h06.55.109,MentalRotationFinal,3.1.2,60
647,47,d,1,4.957999945,1,0,100,35,1,99,i16_150_R.jpg,d,150,Subject7,1,2019-10-16_10h06.55.109,MentalRotationFinal,3.1.2,60
648,48,s,1,3.208000183,1,0,100,38,1,99,i18_50.jpg,s,50,Subject7,1,2019-10-16_10h06.55.109,MentalRotationFinal,3.1.2,60
649,49,s,1,17.83000016,1,0,100,77,1,99,i35_150.jpg,s,150,Subject7,1,2019-10-16_10h06.55.109,MentalRotationFinal,3.1.2,60
650,50,d,1,9.227999926,1,0,100,44,1,99,i20_150_R.jpg,d,150,Subject7,1,2019-10-16_10h06.55.109,MentalRotationFinal,3.1.2,60
651,51,s,1,1.621999979,1,0,100,53,1,99,i25_0.jpg,s,0,Subject7,1,2019-10-16_10h06.55.109,MentalRotationFinal,3.1.2,60
652,52,s,1,5.309000015,1,0,100,68,1,99,i31_150.jpg,s,150,Subject7,1,2019-10-16_10h06.55.109,MentalRotationFinal,3.1.2,60
653,53,s,1,6.273000002000001,1,0,100,49,1,99,i23_50.jpg,s,50,Subject7,1,2019-10-16_10h06.55.109,MentalRotationFinal,3.1.2,60
654,54,s,1,11.81200004,1,0,100,97,1,99,i46_100.jpg,s,100,Subject7,1,2019-10-16_10h06.55.109,MentalRotationFinal,3.1.2,60
655,55,s,1,9.743000031000001,1,0,100,74,1,99,i34_150.jpg,s,150,Subject7,1,2019-10-16_10h06.55.109,MentalRotationFinal,3.1.2,60
656,56,d,1,7.960000037999999,1,0,100,21,1,99,i10_50_R.jpg,d,50,Subject7,1,2019-10-16_10h06.55.109,MentalRotationFinal,3.1.2,60
657,57,s,1,10.17900014,1,0,100,90,1,99,i41_150.jpg,s,150,Subject7,1,2019-10-16_10h06.55.109,MentalRotationFinal,3.1.2,60
658,58,d,1,6.64199996,1,0,100,71,1,99,i33_100_R.jpg,d,100,Subject7,1,2019-10-16_10h06.55.109,MentalRotationFinal,3.1.2,60
659,59,s,1,18.91199994,1,0,100,88,1,99,i40_150.jpg,s,150,Subject7,1,2019-10-16_10h06.55.109,MentalRotationFinal,3.1.2,60
660,60,d,1,7.707999945,1,0,100,27,1,99,i13_50_R.jpg,d,50,Subject7,1,2019-10-16_10h06.55.109,MentalRotationFinal,3.1.2,60
661,61,s,1,16.14700007,1,0,100,64,1,99,i29_150.jpg,s,150,Subject7,1,2019-10-16_10h06.55.109,MentalRotationFinal,3.1.2,60
662,62,d,1,2.907999992,1,0,100,25,1,99,i12_50_R.jpg,d,50,Subject7,1,2019-10-16_10h06.55.109,MentalRotationFinal,3.1.2,60
663,63,d,1,6.042999983,1,0,100,57,1,99,i26_150_R.jpg,d,150,Subject7,1,2019-10-16_10h06.55.109,MentalRotationFinal,3.1.2,60
664,64,d,1,5.490999937000001,1,0,100,78,1,99,i36_100_R.jpg,d,100,Subject7,1,2019-10-16_10h06.55.109,MentalRotationFinal,3.1.2,60
665,65,d,1,3.871999979,1,0,100,89,1,99,i41_100_R.jpg,d,100,Subject7,1,2019-10-16_10h06.55.109,MentalRotationFinal,3.1.2,60
666,66,s,1,2.605000019,1,0,100,43,1,99,i20_50.jpg,s,50,Subject7,1,2019-10-16_10h06.55.109,MentalRotationFinal,3.1.2,60
667,67,d,1,15.977,1,0,100,80,1,99,i37_100_R.jpg,d,100,Subject7,1,2019-10-16_10h06.55.109,MentalRotationFinal,3.1.2,60
668,68,s,1,4.623999834,1,0,100,86,1,99,i39_150.jpg,s,150,Subject7,1,2019-10-16_10h06.55.109,MentalRotationFinal,3.1.2,60
669,69,s,1,1.039000034,1,0,100,29,1,99,i14_0.jpg,s,0,Subject7,1,2019-10-16_10h06.55.109,MentalRotationFinal,3.1.2,60
670,70,d,1,1.907999992,1,0,100,82,1,99,i38_100_R.jpg,d,100,Subject7,1,2019-10-16_10h06.55.109,MentalRotationFinal,3.1.2,60
671,71,d,1,2.723999977,1,0,100,96,1,99,i45_100_R.jpg,d,100,Subject7,1,2019-10-16_10h06.55.109,MentalRotationFinal,3.1.2,60
672,72,d,1,2.374000072,1,0,100,7,1,99,i4_50_R.jpg,d,50,Subject7,1,2019-10-16_10h06.55.109,MentalRotationFinal,3.1.2,60
673,73,s,1,1.82400012,1,0,100,47,1,99,i22_50.jpg,s,50,Subject7,1,2019-10-16_10h06.55.109,MentalRotationFinal,3.1.2,60
674,74,s,1,1.523000002,1,0,100,17,1,99,i8_100.jpg,s,100,Subject7,1,2019-10-16_10h06.55.109,MentalRotationFinal,3.1.2,60
675,75,d,1,2.39199996,1,0,100,33,1,99,i15_150_R.jpg,d,150,Subject7,1,2019-10-16_10h06.55.109,MentalRotationFinal,3.1.2,60
676,76,d,1,1.922999859,1,0,100,85,1,99,i39_100_R.jpg,d,100,Subject7,1,2019-10-16_10h06.55.109,MentalRotationFinal,3.1.2,60
677,77,s,1,3.088999987,1,0,100,9,1,99,i5_0.jpg,s,0,Subject7,1,2019-10-16_10h06.55.109,MentalRotationFinal,3.1.2,60
678,78,d,1,12.59200001,1,0,100,76,1,99,i35_100_R.jpg,d,100,Subject7,1,2019-10-16_10h06.55.109,MentalRotationFinal,3.1.2,60
679,79,s,1,4.905999898999999,1,0,100,61,1,99,i28_150.jpg,s,150,Subject7,1,2019-10-16_10h06.55.109,MentalRotationFinal,3.1.2,60
680,80,s,1,1.99000001,1,0,100,2,1,99,i1_100.jpg,s,100,Subject7,1,2019-10-16_10h06.55.109,MentalRotationFinal,3.1.2,60
681,81,s,1,1.757999897,1,0,100,56,1,99,i26_50.jpg,s,50,Subject7,1,2019-10-16_10h06.55.109,MentalRotationFinal,3.1.2,60
682,82,s,1,2.705999851,1,0,100,70,1,99,i32_150.jpg,s,150,Subject7,1,2019-10-16_10h06.55.109,MentalRotationFinal,3.1.2,60
683,83,s,1,3.257999897,1,0,100,98,1,99,i47_100.jpg,s,100,Subject7,1,2019-10-16_10h06.55.109,MentalRotationFinal,3.1.2,60
684,84,s,1,2.338999987,1,0,100,60,1,99,i28_50.jpg,s,50,Subject7,1,2019-10-16_10h06.55.109,MentalRotationFinal,3.1.2,60
685,85,s,1,8.342000008,1,0,100,20,1,99,i9_100.jpg,s,100,Subject7,1,2019-10-16_10h06.55.109,MentalRotationFinal,3.1.2,60
686,86,d,1,2.173000097,1,0,100,10,1,99,i5_50_R.jpg,d,50,Subject7,1,2019-10-16_10h06.55.109,MentalRotationFinal,3.1.2,60
687,87,d,1,2.372999907,1,0,100,12,1,99,i6_50_R.jpg,d,50,Subject7,1,2019-10-16_10h06.55.109,MentalRotationFinal,3.1.2,60
688,88,s,1,0.856000185,1,0,100,84,1,99,i39_0.jpg,s,0,Subject7,1,2019-10-16_10h06.55.109,MentalRotationFinal,3.1.2,60
689,89,d,1,1.373000145,1,0,100,48,1,99,i22_150_R.jpg,d,150,Subject7,1,2019-10-16_10h06.55.109,MentalRotationFinal,3.1.2,60
690,90,s,1,2.421000004,1,0,100,15,1,99,i7_100.jpg,s,100,Subject7,1,2019-10-16_10h06.55.109,MentalRotationFinal,3.1.2,60
691,91,s,1,0.970999956,1,0,100,62,1,99,i29_0.jpg,s,0,Subject7,1,2019-10-16_10h06.55.109,MentalRotationFinal,3.1.2,60
692,92,d,1,1.355000019,1,0,100,50,1,99,i23_150_R.jpg,d,150,Subject7,1,2019-10-16_10h06.55.109,MentalRotationFinal,3.1.2,60
693,93,d,0,3.690000057,1,0,100,63,1,99,i29_50.jpg,s,50,Subject7,1,2019-10-16_10h06.55.109,MentalRotationFinal,3.1.2,60
694,94,s,1,8.81099987,1,0,100,13,1,99,i6_100.jpg,s,100,Subject7,1,2019-10-16_10h06.55.109,MentalRotationFinal,3.1.2,60
695,95,d,1,2.373999834,1,0,100,31,1,99,i14_150_R.jpg,d,150,Subject7,1,2019-10-16_10h06.55.109,MentalRotationFinal,3.1.2,60
696,96,s,1,0.904000044,1,0,100,40,1,99,i19_0.jpg,s,0,Subject7,1,2019-10-16_10h06.55.109,MentalRotationFinal,3.1.2,60
697,97,s,1,1.273999929,1,0,100,51,1,99,i24_50.jpg,s,50,Subject7,1,2019-10-16_10h06.55.109,MentalRotationFinal,3.1.2,60
698,98,d,1,4.007999897,1,0,100,23,1,99,i11_50_R.jpg,d,50,Subject7,1,2019-10-16_10h06.55.109,MentalRotationFinal,3.1.2,60
699,99,d,1,3.042999983,1,0,100,28,1,99,i13_150_R.jpg,d,150,Subject7,1,2019-10-16_10h06.55.109,MentalRotationFinal,3.1.2,60
700,0,d,1,3.0130000110000004,1,0,100,30,1,99,i14_50_R.jpg,d,50,Subject8,1,2019-10-16_10h06.46.723,MentalRotationFinal,3.1.2,60
701,1,d,1,2.631000042,1,0,100,16,1,99,i8_50_R.jpg,d,50,Subject8,1,2019-10-16_10h06.46.723,MentalRotationFinal,3.1.2,60
702,2,d,1,6.590999842,1,0,100,5,1,99,i3_50_R.jpg,d,50,Subject8,1,2019-10-16_10h06.46.723,MentalRotationFinal,3.1.2,60
703,3,s,0,2.652000189,1,0,100,44,1,99,i20_150_R.jpg,d,150,Subject8,1,2019-10-16_10h06.46.723,MentalRotationFinal,3.1.2,60
704,4,s,1,3.802000046,1,0,100,60,1,99,i28_50.jpg,s,50,Subject8,1,2019-10-16_10h06.46.723,MentalRotationFinal,3.1.2,60
705,5,s,1,2.8190000060000004,1,0,100,4,1,99,i2_100.jpg,s,100,Subject8,1,2019-10-16_10h06.46.723,MentalRotationFinal,3.1.2,60
706,6,d,1,2.980999947,1,0,100,95,1,99,i44_100_R.jpg,d,100,Subject8,1,2019-10-16_10h06.46.723,MentalRotationFinal,3.1.2,60
707,7,s,1,2.667000055,1,0,100,88,1,99,i40_150.jpg,s,150,Subject8,1,2019-10-16_10h06.46.723,MentalRotationFinal,3.1.2,60
708,8,d,1,2.476000071,1,0,100,28,1,99,i13_150_R.jpg,d,150,Subject8,1,2019-10-16_10h06.46.723,MentalRotationFinal,3.1.2,60
709,9,s,1,3.555999994,1,0,100,62,1,99,i29_0.jpg,s,0,Subject8,1,2019-10-16_10h06.46.723,MentalRotationFinal,3.1.2,60
710,10,d,1,2.664999962,1,0,100,7,1,99,i4_50_R.jpg,d,50,Subject8,1,2019-10-16_10h06.46.723,MentalRotationFinal,3.1.2,60
711,11,s,1,2.776000023,1,0,100,99,1,99,i48_100.jpg,s,100,Subject8,1,2019-10-16_10h06.46.723,MentalRotationFinal,3.1.2,60
712,12,s,1,1.993999958,1,0,100,41,1,99,i19_50.jpg,s,50,Subject8,1,2019-10-16_10h06.46.723,MentalRotationFinal,3.1.2,60
713,13,s,1,1.746000051,1,0,100,86,1,99,i39_150.jpg,s,150,Subject8,1,2019-10-16_10h06.46.723,MentalRotationFinal,3.1.2,60
714,14,s,1,1.463000059,1,0,100,18,1,99,i9_0.jpg,s,0,Subject8,1,2019-10-16_10h06.46.723,MentalRotationFinal,3.1.2,60
715,15,s,0,2.344000101,1,0,100,55,1,99,i25_150_R.jpg,d,150,Subject8,1,2019-10-16_10h06.46.723,MentalRotationFinal,3.1.2,60
716,16,s,1,3.532000065,1,0,100,90,1,99,i41_150.jpg,s,150,Subject8,1,2019-10-16_10h06.46.723,MentalRotationFinal,3.1.2,60
717,17,d,1,2.434000015,1,0,100,46,1,99,i21_150_R.jpg,d,150,Subject8,1,2019-10-16_10h06.46.723,MentalRotationFinal,3.1.2,60
718,18,s,1,2.546999931,1,0,100,98,1,99,i47_100.jpg,s,100,Subject8,1,2019-10-16_10h06.46.723,MentalRotationFinal,3.1.2,60
719,19,d,1,2.519000053,1,0,100,35,1,99,i16_150_R.jpg,d,150,Subject8,1,2019-10-16_10h06.46.723,MentalRotationFinal,3.1.2,60
720,20,s,1,2.139999866,1,0,100,17,1,99,i8_100.jpg,s,100,Subject8,1,2019-10-16_10h06.46.723,MentalRotationFinal,3.1.2,60
721,21,d,1,1.6340000630000002,1,0,100,12,1,99,i6_50_R.jpg,d,50,Subject8,1,2019-10-16_10h06.46.723,MentalRotationFinal,3.1.2,60
722,22,s,1,4.020999908,1,0,100,58,1,99,i27_50.jpg,s,50,Subject8,1,2019-10-16_10h06.46.723,MentalRotationFinal,3.1.2,60
723,23,d,1,6.256999969,1,0,100,37,1,99,i17_150_R.jpg,d,150,Subject8,1,2019-10-16_10h06.46.723,MentalRotationFinal,3.1.2,60
724,24,d,1,4.507999897,1,0,100,10,1,99,i5_50_R.jpg,d,50,Subject8,1,2019-10-16_10h06.46.723,MentalRotationFinal,3.1.2,60
725,25,s,1,6.059000015,1,0,100,22,1,99,i10_100.jpg,s,100,Subject8,1,2019-10-16_10h06.46.723,MentalRotationFinal,3.1.2,60
726,26,d,1,4.845000029,1,0,100,31,1,99,i14_150_R.jpg,d,150,Subject8,1,2019-10-16_10h06.46.723,MentalRotationFinal,3.1.2,60
727,27,d,1,5.407999992000001,1,0,100,71,1,99,i33_100_R.jpg,d,100,Subject8,1,2019-10-16_10h06.46.723,MentalRotationFinal,3.1.2,60
728,28,s,1,5.633999825,1,0,100,77,1,99,i35_150.jpg,s,150,Subject8,1,2019-10-16_10h06.46.723,MentalRotationFinal,3.1.2,60
729,29,s,1,3.217999935,1,0,100,26,1,99,i12_100.jpg,s,100,Subject8,1,2019-10-16_10h06.46.723,MentalRotationFinal,3.1.2,60
730,30,s,1,4.256999969,1,0,100,61,1,99,i28_150.jpg,s,150,Subject8,1,2019-10-16_10h06.46.723,MentalRotationFinal,3.1.2,60
731,31,d,1,3.585999966,1,0,100,19,1,99,i9_50_R.jpg,d,50,Subject8,1,2019-10-16_10h06.46.723,MentalRotationFinal,3.1.2,60
732,32,d,1,6.0540001389999984,1,0,100,39,1,99,i18_150_R.jpg,d,150,Subject8,1,2019-10-16_10h06.46.723,MentalRotationFinal,3.1.2,60
733,33,d,0,7.279999971,1,0,100,13,1,99,i6_100.jpg,s,100,Subject8,1,2019-10-16_10h06.46.723,MentalRotationFinal,3.1.2,60
734,34,s,1,5.339999914,1,0,100,11,1,99,i5_100.jpg,s,100,Subject8,1,2019-10-16_10h06.46.723,MentalRotationFinal,3.1.2,60
735,35,d,1,3.536000013,1,0,100,91,1,99,i42_100_R.jpg,d,100,Subject8,1,2019-10-16_10h06.46.723,MentalRotationFinal,3.1.2,60
736,36,s,1,2.108999968,1,0,100,47,1,99,i22_50.jpg,s,50,Subject8,1,2019-10-16_10h06.46.723,MentalRotationFinal,3.1.2,60
737,37,d,1,4.320000172,1,0,100,80,1,99,i37_100_R.jpg,d,100,Subject8,1,2019-10-16_10h06.46.723,MentalRotationFinal,3.1.2,60
738,38,s,1,1.330000162,1,0,100,29,1,99,i14_0.jpg,s,0,Subject8,1,2019-10-16_10h06.46.723,MentalRotationFinal,3.1.2,60
739,39,d,1,5.688999891,1,0,100,52,1,99,i24_150_R.jpg,d,150,Subject8,1,2019-10-16_10h06.46.723,MentalRotationFinal,3.1.2,60
740,40,s,1,2.173999786,1,0,100,45,1,99,i21_50.jpg,s,50,Subject8,1,2019-10-16_10h06.46.723,MentalRotationFinal,3.1.2,60
741,41,d,1,1.892999887,1,0,100,48,1,99,i22_150_R.jpg,d,150,Subject8,1,2019-10-16_10h06.46.723,MentalRotationFinal,3.1.2,60
742,42,d,1,2.638999939,1,0,100,82,1,99,i38_100_R.jpg,d,100,Subject8,1,2019-10-16_10h06.46.723,MentalRotationFinal,3.1.2,60
743,43,d,1,1.648000002,1,0,100,32,1,99,i15_50_R.jpg,d,50,Subject8,1,2019-10-16_10h06.46.723,MentalRotationFinal,3.1.2,60
744,44,d,1,3.115999937,1,0,100,67,1,99,i31_100_R.jpg,d,100,Subject8,1,2019-10-16_10h06.46.723,MentalRotationFinal,3.1.2,60
745,45,s,1,1.164000034,1,0,100,0,1,99,i1_0.jpg,s,0,Subject8,1,2019-10-16_10h06.46.723,MentalRotationFinal,3.1.2,60
746,46,s,1,4.470999956,1,0,100,66,1,99,i30_150.jpg,s,150,Subject8,1,2019-10-16_10h06.46.723,MentalRotationFinal,3.1.2,60
747,47,d,1,1.836999893,1,0,100,3,1,99,i2_50_R.jpg,d,50,Subject8,1,2019-10-16_10h06.46.723,MentalRotationFinal,3.1.2,60
748,48,s,1,4.2620000839999985,1,0,100,72,1,99,i33_150.jpg,s,150,Subject8,1,2019-10-16_10h06.46.723,MentalRotationFinal,3.1.2,60
749,49,d,1,3.42599988,1,0,100,42,1,99,i19_150_R.jpg,d,150,Subject8,1,2019-10-16_10h06.46.723,MentalRotationFinal,3.1.2,60
750,50,s,1,4.480999947,1,0,100,56,1,99,i26_50.jpg,s,50,Subject8,1,2019-10-16_10h06.46.723,MentalRotationFinal,3.1.2,60
751,51,s,1,1.336000204,1,0,100,53,1,99,i25_0.jpg,s,0,Subject8,1,2019-10-16_10h06.46.723,MentalRotationFinal,3.1.2,60
752,52,s,1,3.4939999580000003,1,0,100,74,1,99,i34_150.jpg,s,150,Subject8,1,2019-10-16_10h06.46.723,MentalRotationFinal,3.1.2,60
753,53,s,1,2.944999933,1,0,100,6,1,99,i3_100.jpg,s,100,Subject8,1,2019-10-16_10h06.46.723,MentalRotationFinal,3.1.2,60
754,54,d,1,3.684999943,1,0,100,76,1,99,i35_100_R.jpg,d,100,Subject8,1,2019-10-16_10h06.46.723,MentalRotationFinal,3.1.2,60
755,55,s,1,4.029000044,1,0,100,68,1,99,i31_150.jpg,s,150,Subject8,1,2019-10-16_10h06.46.723,MentalRotationFinal,3.1.2,60
756,56,d,1,2.601999998,1,0,100,96,1,99,i45_100_R.jpg,d,100,Subject8,1,2019-10-16_10h06.46.723,MentalRotationFinal,3.1.2,60
757,57,d,1,7.244999886,1,0,100,21,1,99,i10_50_R.jpg,d,50,Subject8,1,2019-10-16_10h06.46.723,MentalRotationFinal,3.1.2,60
758,58,s,1,2.678000212,1,0,100,15,1,99,i7_100.jpg,s,100,Subject8,1,2019-10-16_10h06.46.723,MentalRotationFinal,3.1.2,60
759,59,d,1,2.088999987,1,0,100,25,1,99,i12_50_R.jpg,d,50,Subject8,1,2019-10-16_10h06.46.723,MentalRotationFinal,3.1.2,60
760,60,d,1,3.836999893,1,0,100,14,1,99,i7_50_R.jpg,d,50,Subject8,1,2019-10-16_10h06.46.723,MentalRotationFinal,3.1.2,60
761,61,d,1,7.850000143,1,0,100,85,1,99,i39_100_R.jpg,d,100,Subject8,1,2019-10-16_10h06.46.723,MentalRotationFinal,3.1.2,60
762,62,s,1,3.792999983,1,0,100,70,1,99,i32_150.jpg,s,150,Subject8,1,2019-10-16_10h06.46.723,MentalRotationFinal,3.1.2,60
763,63,s,1,2.305000067,1,0,100,20,1,99,i9_100.jpg,s,100,Subject8,1,2019-10-16_10h06.46.723,MentalRotationFinal,3.1.2,60
764,64,d,1,3.404000044,1,0,100,33,1,99,i15_150_R.jpg,d,150,Subject8,1,2019-10-16_10h06.46.723,MentalRotationFinal,3.1.2,60
765,65,d,1,1.821000099,1,0,100,1,1,99,i1_50_R.jpg,d,50,Subject8,1,2019-10-16_10h06.46.723,MentalRotationFinal,3.1.2,60
766,66,d,1,3.489000082,1,0,100,73,1,99,i34_100_R.jpg,d,100,Subject8,1,2019-10-16_10h06.46.723,MentalRotationFinal,3.1.2,60
767,67,s,1,6.182999849,1,0,100,79,1,99,i36_150.jpg,s,150,Subject8,1,2019-10-16_10h06.46.723,MentalRotationFinal,3.1.2,60
768,68,s,1,3.614000082,1,0,100,51,1,99,i24_50.jpg,s,50,Subject8,1,2019-10-16_10h06.46.723,MentalRotationFinal,3.1.2,60
769,69,s,1,1.855999947,1,0,100,34,1,99,i16_50.jpg,s,50,Subject8,1,2019-10-16_10h06.46.723,MentalRotationFinal,3.1.2,60
770,70,d,1,5.555000067000001,1,0,100,87,1,99,i40_100_R.jpg,d,100,Subject8,1,2019-10-16_10h06.46.723,MentalRotationFinal,3.1.2,60
771,71,d,1,2.6940000060000004,1,0,100,50,1,99,i23_150_R.jpg,d,150,Subject8,1,2019-10-16_10h06.46.723,MentalRotationFinal,3.1.2,60
772,72,d,1,7.438000202,1,0,100,57,1,99,i26_150_R.jpg,d,150,Subject8,1,2019-10-16_10h06.46.723,MentalRotationFinal,3.1.2,60
773,73,s,1,2.773999929,1,0,100,64,1,99,i29_150.jpg,s,150,Subject8,1,2019-10-16_10h06.46.723,MentalRotationFinal,3.1.2,60
774,74,d,1,4.05700016,1,0,100,23,1,99,i11_50_R.jpg,d,50,Subject8,1,2019-10-16_10h06.46.723,MentalRotationFinal,3.1.2,60
775,75,s,1,1.878000021,1,0,100,38,1,99,i18_50.jpg,s,50,Subject8,1,2019-10-16_10h06.46.723,MentalRotationFinal,3.1.2,60
776,76,s,1,2.409999847,1,0,100,49,1,99,i23_50.jpg,s,50,Subject8,1,2019-10-16_10h06.46.723,MentalRotationFinal,3.1.2,60
777,77,s,1,1.496000051,1,0,100,75,1,99,i35_0.jpg,s,0,Subject8,1,2019-10-16_10h06.46.723,MentalRotationFinal,3.1.2,60
778,78,s,1,2.9270000460000003,1,0,100,24,1,99,i11_100.jpg,s,100,Subject8,1,2019-10-16_10h06.46.723,MentalRotationFinal,3.1.2,60
779,79,s,1,0.985000134,1,0,100,40,1,99,i19_0.jpg,s,0,Subject8,1,2019-10-16_10h06.46.723,MentalRotationFinal,3.1.2,60
780,80,d,1,2.048000097,1,0,100,93,1,99,i43_100_R.jpg,d,100,Subject8,1,2019-10-16_10h06.46.723,MentalRotationFinal,3.1.2,60
781,81,d,1,2.429000139,1,0,100,89,1,99,i41_100_R.jpg,d,100,Subject8,1,2019-10-16_10h06.46.723,MentalRotationFinal,3.1.2,60
782,82,s,1,1.077000141,1,0,100,84,1,99,i39_0.jpg,s,0,Subject8,1,2019-10-16_10h06.46.723,MentalRotationFinal,3.1.2,60
783,83,s,1,1.638999939,1,0,100,97,1,99,i46_100.jpg,s,100,Subject8,1,2019-10-16_10h06.46.723,MentalRotationFinal,3.1.2,60
784,84,s,1,1.08100009,1,0,100,9,1,99,i5_0.jpg,s,0,Subject8,1,2019-10-16_10h06.46.723,MentalRotationFinal,3.1.2,60
785,85,d,1,2.484999895,1,0,100,78,1,99,i36_100_R.jpg,d,100,Subject8,1,2019-10-16_10h06.46.723,MentalRotationFinal,3.1.2,60
786,86,d,1,5.434999942999999,1,0,100,59,1,99,i27_150_R.jpg,d,150,Subject8,1,2019-10-16_10h06.46.723,MentalRotationFinal,3.1.2,60
787,87,d,1,2.090000153,1,0,100,27,1,99,i13_50_R.jpg,d,50,Subject8,1,2019-10-16_10h06.46.723,MentalRotationFinal,3.1.2,60
788,88,s,1,1.758999825,1,0,100,54,1,99,i25_50.jpg,s,50,Subject8,1,2019-10-16_10h06.46.723,MentalRotationFinal,3.1.2,60
789,89,s,1,3.349999905,1,0,100,63,1,99,i29_50.jpg,s,50,Subject8,1,2019-10-16_10h06.46.723,MentalRotationFinal,3.1.2,60
790,90,s,1,2.194000006,1,0,100,83,1,99,i38_150.jpg,s,150,Subject8,1,2019-10-16_10h06.46.723,MentalRotationFinal,3.1.2,60
791,91,s,1,4.542000055,1,0,100,81,1,99,i37_150.jpg,s,150,Subject8,1,2019-10-16_10h06.46.723,MentalRotationFinal,3.1.2,60
792,92,s,1,1.714999914,1,0,100,8,1,99,i4_100.jpg,s,100,Subject8,1,2019-10-16_10h06.46.723,MentalRotationFinal,3.1.2,60
793,93,s,1,2.253000021,1,0,100,2,1,99,i1_100.jpg,s,100,Subject8,1,2019-10-16_10h06.46.723,MentalRotationFinal,3.1.2,60
794,94,s,1,1.944000006,1,0,100,43,1,99,i20_50.jpg,s,50,Subject8,1,2019-10-16_10h06.46.723,MentalRotationFinal,3.1.2,60
795,95,s,1,4.539999962,1,0,100,92,1,99,i42_150.jpg,s,150,Subject8,1,2019-10-16_10h06.46.723,MentalRotationFinal,3.1.2,60
796,96,s,1,2.335999966,1,0,100,65,1,99,i30_50.jpg,s,50,Subject8,1,2019-10-16_10h06.46.723,MentalRotationFinal,3.1.2,60
797,97,s,1,0.8340001109999999,1,0,100,94,1,99,i44_0.jpg,s,0,Subject8,1,2019-10-16_10h06.46.723,MentalRotationFinal,3.1.2,60
798,98,d,1,1.980999947,1,0,100,69,1,99,i32_100_R.jpg,d,100,Subject8,1,2019-10-16_10h06.46.723,MentalRotationFinal,3.1.2,60
799,99,s,1,2.305000067,1,0,100,36,1,99,i17_50.jpg,s,50,Subject8,1,2019-10-16_10h06.46.723,MentalRotationFinal,3.1.2,60
800,0,s,1,2.970000029,1,0,100,36,1,99,i17_50.jpg,s,50,Subject9,1,2019-10-16_10h07.25.323,MentalRotationFinal,3.1.2,60
801,1,s,1,5.653999805,1,0,100,11,1,99,i5_100.jpg,s,100,Subject9,1,2019-10-16_10h07.25.323,MentalRotationFinal,3.1.2,60
802,2,d,1,7.174999952,1,0,100,93,1,99,i43_100_R.jpg,d,100,Subject9,1,2019-10-16_10h07.25.323,MentalRotationFinal,3.1.2,60
803,3,s,1,2.92200017,1,0,100,77,1,99,i35_150.jpg,s,150,Subject9,1,2019-10-16_10h07.25.323,MentalRotationFinal,3.1.2,60
804,4,d,1,4.003999949,1,0,100,96,1,99,i45_100_R.jpg,d,100,Subject9,1,2019-10-16_10h07.25.323,MentalRotationFinal,3.1.2,60
805,5,s,1,6.174999952,1,0,100,45,1,99,i21_50.jpg,s,50,Subject9,1,2019-10-16_10h07.25.323,MentalRotationFinal,3.1.2,60
806,6,s,1,2.220999956,1,0,100,29,1,99,i14_0.jpg,s,0,Subject9,1,2019-10-16_10h07.25.323,MentalRotationFinal,3.1.2,60
807,7,d,1,2.737999916,1,0,100,80,1,99,i37_100_R.jpg,d,100,Subject9,1,2019-10-16_10h07.25.323,MentalRotationFinal,3.1.2,60
808,8,s,1,1.838000059,1,0,100,41,1,99,i19_50.jpg,s,50,Subject9,1,2019-10-16_10h07.25.323,MentalRotationFinal,3.1.2,60
809,9,s,1,5.271000147,1,0,100,26,1,99,i12_100.jpg,s,100,Subject9,1,2019-10-16_10h07.25.323,MentalRotationFinal,3.1.2,60
810,10,s,1,10.74499989,1,0,100,13,1,99,i6_100.jpg,s,100,Subject9,1,2019-10-16_10h07.25.323,MentalRotationFinal,3.1.2,60
811,11,d,1,2.121999979,1,0,100,30,1,99,i14_50_R.jpg,d,50,Subject9,1,2019-10-16_10h07.25.323,MentalRotationFinal,3.1.2,60
812,12,d,1,2.855000019,1,0,100,28,1,99,i13_150_R.jpg,d,150,Subject9,1,2019-10-16_10h07.25.323,MentalRotationFinal,3.1.2,60
813,13,s,1,5.671999931,1,0,100,61,1,99,i28_150.jpg,s,150,Subject9,1,2019-10-16_10h07.25.323,MentalRotationFinal,3.1.2,60
814,14,d,1,2.023000002,1,0,100,19,1,99,i9_50_R.jpg,d,50,Subject9,1,2019-10-16_10h07.25.323,MentalRotationFinal,3.1.2,60
815,15,d,1,2.7869999410000004,1,0,100,27,1,99,i13_50_R.jpg,d,50,Subject9,1,2019-10-16_10h07.25.323,MentalRotationFinal,3.1.2,60
816,16,s,1,3.840999842,1,0,100,60,1,99,i28_50.jpg,s,50,Subject9,1,2019-10-16_10h07.25.323,MentalRotationFinal,3.1.2,60
817,17,d,1,2.272000074,1,0,100,35,1,99,i16_150_R.jpg,d,150,Subject9,1,2019-10-16_10h07.25.323,MentalRotationFinal,3.1.2,60
818,18,s,1,13.02600002,1,0,100,68,1,99,i31_150.jpg,s,150,Subject9,1,2019-10-16_10h07.25.323,MentalRotationFinal,3.1.2,60
819,19,s,1,10.46199989,1,0,100,54,1,99,i25_50.jpg,s,50,Subject9,1,2019-10-16_10h07.25.323,MentalRotationFinal,3.1.2,60
820,20,s,1,5.088000059,1,0,100,88,1,99,i40_150.jpg,s,150,Subject9,1,2019-10-16_10h07.25.323,MentalRotationFinal,3.1.2,60
821,21,d,1,3.641000032,1,0,100,82,1,99,i38_100_R.jpg,d,100,Subject9,1,2019-10-16_10h07.25.323,MentalRotationFinal,3.1.2,60
822,22,d,1,2.74000001,1,0,100,85,1,99,i39_100_R.jpg,d,100,Subject9,1,2019-10-16_10h07.25.323,MentalRotationFinal,3.1.2,60
823,23,s,1,2.3180000780000003,1,0,100,63,1,99,i29_50.jpg,s,50,Subject9,1,2019-10-16_10h07.25.323,MentalRotationFinal,3.1.2,60
