,Unnamed: 0,signal_present,signal_type,trial_num,button_position,subject_number,responses,rt,correct_resp,sdt-amk1048
0,0.0,1.0,60.0,0.0,left,jl13312,1.0,114562.711,1.0,
1,1.0,1.0,10.0,1.0,left,jl13312,1.0,1327.995,1.0,
2,2.0,1.0,10.0,2.0,left,jl13312,1.0,808.116,1.0,
3,3.0,1.0,15.0,3.0,left,jl13312,1.0,821.9340000000001,1.0,
4,4.0,0.0,0.0,4.0,left,jl13312,1.0,762.16,0.0,
5,5.0,1.0,60.0,5.0,left,jl13312,1.0,654.555,1.0,
6,6.0,0.0,0.0,6.0,left,jl13312,1.0,597.563,0.0,
7,7.0,1.0,60.0,7.0,left,jl13312,1.0,138748.306,1.0,
8,8.0,1.0,25.0,8.0,left,jl13312,1.0,950.837,1.0,
9,9.0,1.0,15.0,9.0,left,jl13312,1.0,1260.65,1.0,
10,10.0,0.0,0.0,10.0,left,jl13312,1.0,806.851,0.0,
11,11.0,0.0,0.0,11.0,left,jl13312,1.0,927.704,0.0,
12,12.0,0.0,0.0,12.0,left,jl13312,1.0,677.765,0.0,
13,13.0,0.0,0.0,13.0,left,jl13312,1.0,598.913,0.0,
14,14.0,1.0,15.0,14.0,left,jl13312,1.0,652.314,1.0,
15,15.0,1.0,10.0,15.0,left,jl13312,1.0,632.331,1.0,
16,16.0,0.0,0.0,16.0,left,jl13312,1.0,787.846,0.0,
17,17.0,0.0,0.0,17.0,left,jl13312,1.0,666.34,0.0,
18,18.0,0.0,0.0,18.0,left,jl13312,1.0,614.11,0.0,
19,19.0,0.0,0.0,19.0,left,jl13312,1.0,814.705,0.0,
20,20.0,1.0,25.0,20.0,left,jl13312,1.0,882.124,1.0,
21,21.0,0.0,0.0,21.0,left,jl13312,1.0,695.704,0.0,
22,22.0,0.0,0.0,22.0,left,jl13312,1.0,699.6329999999999,0.0,
23,23.0,1.0,60.0,23.0,left,jl13312,1.0,810.1080000000001,1.0,
24,24.0,1.0,60.0,24.0,left,jl13312,1.0,742.933,1.0,
25,25.0,0.0,0.0,25.0,left,jl13312,1.0,777.335,0.0,
26,26.0,1.0,60.0,26.0,left,jl13312,1.0,770.7230000000001,1.0,
27,27.0,1.0,10.0,27.0,left,jl13312,1.0,628.207,1.0,
28,28.0,1.0,60.0,28.0,left,jl13312,1.0,1652.462,1.0,
29,29.0,0.0,0.0,29.0,left,jl13312,1.0,1246.395,0.0,
30,30.0,1.0,15.0,30.0,left,jl13312,1.0,681.26,1.0,
31,31.0,1.0,25.0,31.0,left,jl13312,1.0,613.733,1.0,
32,32.0,0.0,0.0,32.0,left,jl13312,1.0,577.883,0.0,
33,33.0,0.0,0.0,33.0,left,jl13312,1.0,572.9250000000001,0.0,
34,34.0,0.0,0.0,34.0,left,jl13312,1.0,721.125,0.0,
35,35.0,1.0,60.0,35.0,left,jl13312,1.0,696.217,1.0,
36,36.0,1.0,25.0,36.0,left,jl13312,1.0,561.7220000000001,1.0,
37,37.0,1.0,25.0,37.0,left,jl13312,1.0,552.526,1.0,
38,38.0,0.0,0.0,38.0,left,jl13312,1.0,616.398,0.0,
39,39.0,1.0,10.0,39.0,left,jl13312,1.0,600.5169999999999,1.0,
40,40.0,0.0,0.0,40.0,left,jl13312,1.0,511.261,0.0,
41,41.0,1.0,25.0,41.0,left,jl13312,1.0,495.682,1.0,
42,42.0,1.0,25.0,42.0,left,jl13312,1.0,545.144,1.0,
43,43.0,1.0,60.0,43.0,left,jl13312,1.0,543.278,1.0,
44,44.0,1.0,10.0,44.0,left,jl13312,1.0,513.946,1.0,
45,45.0,1.0,25.0,45.0,left,jl13312,1.0,1584.87,1.0,
46,46.0,1.0,25.0,46.0,left,jl13312,1.0,1577.315,1.0,
47,47.0,0.0,0.0,47.0,left,jl13312,1.0,546.841,0.0,
48,48.0,0.0,0.0,48.0,left,jl13312,1.0,616.382,0.0,
49,49.0,0.0,0.0,49.0,left,jl13312,1.0,378.61,0.0,
50,50.0,1.0,10.0,50.0,left,jl13312,1.0,539.8389999999999,1.0,
51,51.0,1.0,25.0,51.0,left,jl13312,1.0,445.538,1.0,
52,52.0,0.0,0.0,52.0,left,jl13312,1.0,470.022,0.0,
53,53.0,0.0,0.0,53.0,left,jl13312,1.0,404.275,0.0,
54,54.0,1.0,25.0,54.0,left,jl13312,1.0,367.637,1.0,
55,55.0,0.0,0.0,55.0,left,jl13312,1.0,324.60299999999995,0.0,
56,56.0,0.0,0.0,56.0,left,jl13312,1.0,259.02,0.0,
57,57.0,0.0,0.0,57.0,left,jl13312,1.0,239.999,0.0,
58,58.0,0.0,0.0,58.0,left,jl13312,1.0,335.055,0.0,
59,59.0,1.0,25.0,59.0,left,jl13312,1.0,303.50100000000003,1.0,
60,60.0,1.0,10.0,60.0,left,jl13312,1.0,327.742,1.0,
61,61.0,1.0,15.0,61.0,left,jl13312,1.0,355.916,1.0,
62,62.0,1.0,15.0,62.0,left,jl13312,1.0,282.501,1.0,
63,63.0,1.0,15.0,63.0,left,jl13312,1.0,297.414,1.0,
64,64.0,0.0,0.0,64.0,left,jl13312,1.0,274.584,0.0,
65,65.0,1.0,10.0,65.0,left,jl13312,1.0,415.171,1.0,
66,66.0,0.0,0.0,66.0,left,jl13312,1.0,303.06,0.0,
67,67.0,0.0,0.0,67.0,left,jl13312,1.0,351.286,0.0,
68,68.0,1.0,60.0,68.0,left,jl13312,1.0,316.642,1.0,
69,69.0,0.0,0.0,69.0,left,jl13312,1.0,315.757,0.0,
70,70.0,1.0,60.0,70.0,left,jl13312,1.0,281.618,1.0,
71,71.0,0.0,0.0,71.0,left,jl13312,1.0,271.07,0.0,
72,72.0,0.0,0.0,72.0,left,jl13312,1.0,238.671,0.0,
73,73.0,0.0,0.0,73.0,left,jl13312,1.0,197.229,0.0,
74,74.0,1.0,10.0,74.0,left,jl13312,1.0,123.783,1.0,
75,75.0,1.0,15.0,75.0,left,jl13312,1.0,6.773000000000001,1.0,
76,76.0,1.0,10.0,76.0,left,jl13312,1.0,6.755,1.0,
77,77.0,0.0,0.0,77.0,left,jl13312,1.0,10.62,0.0,
78,78.0,0.0,0.0,78.0,left,jl13312,1.0,8.442,0.0,
79,79.0,1.0,25.0,79.0,left,jl13312,1.0,8.489999999999998,1.0,
80,80.0,0.0,0.0,80.0,left,jl13312,1.0,5.954,0.0,
81,81.0,1.0,60.0,81.0,left,jl13312,1.0,8.177,1.0,
82,82.0,0.0,0.0,82.0,left,jl13312,1.0,6.203,0.0,
83,83.0,0.0,0.0,83.0,left,jl13312,1.0,5.674,0.0,
84,84.0,0.0,0.0,84.0,left,jl13312,1.0,6.189,0.0,
85,85.0,0.0,0.0,85.0,left,jl13312,1.0,5.492,0.0,
86,86.0,1.0,15.0,86.0,left,jl13312,1.0,5.806,1.0,
87,87.0,1.0,25.0,87.0,left,jl13312,1.0,5.611,1.0,
88,88.0,1.0,10.0,88.0,left,jl13312,1.0,6.14,1.0,
89,89.0,1.0,60.0,89.0,left,jl13312,1.0,9.186,1.0,
90,90.0,0.0,0.0,90.0,left,jl13312,1.0,5.806,0.0,
91,91.0,0.0,0.0,91.0,left,jl13312,1.0,5.465,0.0,
92,92.0,0.0,0.0,92.0,left,jl13312,1.0,5.286,0.0,
93,93.0,1.0,25.0,93.0,left,jl13312,1.0,5.694,1.0,
94,94.0,1.0,60.0,94.0,left,jl13312,1.0,5.976,1.0,
95,95.0,1.0,10.0,95.0,left,jl13312,1.0,5.777,1.0,
96,96.0,0.0,0.0,96.0,left,jl13312,1.0,5.766,0.0,
97,97.0,0.0,0.0,97.0,left,jl13312,1.0,6.272,0.0,
98,98.0,0.0,0.0,98.0,left,jl13312,1.0,5.619,0.0,
99,99.0,0.0,0.0,99.0,left,jl13312,1.0,5.929,0.0,
100,100.0,0.0,0.0,100.0,left,jl13312,1.0,5.747000000000001,0.0,
101,101.0,0.0,0.0,101.0,left,jl13312,1.0,5.83,0.0,
102,102.0,1.0,25.0,102.0,left,jl13312,1.0,6.269,1.0,
103,103.0,0.0,0.0,103.0,left,jl13312,1.0,5.420999999999999,0.0,
104,104.0,1.0,10.0,104.0,left,jl13312,1.0,6.673,1.0,
105,105.0,1.0,15.0,105.0,left,jl13312,1.0,5.426,1.0,
106,106.0,1.0,15.0,106.0,left,jl13312,1.0,6.002999999999999,1.0,
107,107.0,0.0,0.0,107.0,left,jl13312,1.0,5.384,0.0,
108,108.0,1.0,15.0,108.0,left,jl13312,1.0,5.698,1.0,
109,109.0,0.0,0.0,109.0,left,jl13312,1.0,6.0280000000000005,0.0,
110,110.0,0.0,0.0,110.0,left,jl13312,1.0,5.475,0.0,
111,111.0,1.0,10.0,111.0,left,jl13312,1.0,6.156,1.0,
112,112.0,0.0,0.0,112.0,left,jl13312,1.0,8.016,0.0,
113,113.0,0.0,0.0,113.0,left,jl13312,1.0,5.882,0.0,
114,114.0,0.0,0.0,114.0,left,jl13312,1.0,5.28,0.0,
115,115.0,0.0,0.0,115.0,left,jl13312,1.0,6.021,0.0,
116,116.0,0.0,0.0,116.0,left,jl13312,1.0,5.854,0.0,
117,117.0,1.0,25.0,117.0,left,jl13312,1.0,6.702999999999999,1.0,
118,118.0,0.0,0.0,118.0,left,jl13312,1.0,5.779,0.0,
119,119.0,1.0,60.0,119.0,left,jl13312,1.0,6.029999999999999,1.0,
120,120.0,0.0,0.0,120.0,left,jl13312,1.0,6.048,0.0,
121,121.0,0.0,0.0,121.0,left,jl13312,1.0,7.047000000000001,0.0,
122,122.0,1.0,25.0,122.0,left,jl13312,1.0,6.029999999999999,1.0,
123,123.0,0.0,0.0,123.0,left,jl13312,1.0,6.055,0.0,
124,124.0,1.0,60.0,124.0,left,jl13312,1.0,5.539,1.0,
125,125.0,0.0,0.0,125.0,left,jl13312,1.0,5.927,0.0,
126,126.0,1.0,10.0,126.0,left,jl13312,1.0,5.797,1.0,
127,127.0,1.0,15.0,127.0,left,jl13312,1.0,5.752,1.0,
128,128.0,0.0,0.0,128.0,left,jl13312,1.0,5.49,0.0,
129,129.0,0.0,0.0,129.0,left,jl13312,1.0,5.645,0.0,
130,130.0,0.0,0.0,130.0,left,jl13312,1.0,5.614,0.0,
131,131.0,1.0,25.0,131.0,left,jl13312,1.0,5.35,1.0,
132,132.0,1.0,60.0,132.0,left,jl13312,1.0,6.053,1.0,
133,133.0,1.0,25.0,133.0,left,jl13312,1.0,6.064,1.0,
134,134.0,0.0,0.0,134.0,left,jl13312,1.0,5.621,0.0,
135,135.0,1.0,60.0,135.0,left,jl13312,1.0,1430.2220000000002,1.0,
136,136.0,0.0,0.0,136.0,left,jl13312,1.0,22415.398,0.0,
137,137.0,1.0,10.0,137.0,left,jl13312,1.0,194.717,1.0,
138,138.0,0.0,0.0,138.0,left,jl13312,1.0,217.974,0.0,
139,139.0,1.0,15.0,139.0,left,jl13312,1.0,145.874,1.0,
140,140.0,0.0,0.0,140.0,left,jl13312,1.0,113.104,0.0,
141,141.0,0.0,0.0,141.0,left,jl13312,1.0,82.706,0.0,
142,142.0,0.0,0.0,142.0,left,jl13312,1.0,63.35399999999999,0.0,
143,143.0,0.0,0.0,143.0,left,jl13312,1.0,103.368,0.0,
144,144.0,0.0,0.0,144.0,left,jl13312,1.0,135.873,0.0,
145,145.0,0.0,0.0,145.0,left,jl13312,1.0,155.45600000000002,0.0,
146,146.0,0.0,0.0,146.0,left,jl13312,1.0,8.954,0.0,
147,147.0,0.0,0.0,147.0,left,jl13312,1.0,6.4590000000000005,0.0,
148,148.0,1.0,10.0,148.0,left,jl13312,1.0,7.274,1.0,
149,149.0,1.0,15.0,149.0,left,jl13312,1.0,8.998000000000001,1.0,
150,150.0,1.0,25.0,150.0,left,jl13312,1.0,6.2490000000000006,1.0,
151,151.0,1.0,10.0,151.0,left,jl13312,1.0,6.303999999999999,1.0,
152,152.0,1.0,60.0,152.0,left,jl13312,1.0,8.819,1.0,
153,153.0,1.0,10.0,153.0,left,jl13312,1.0,6.495,1.0,
154,154.0,1.0,15.0,154.0,left,jl13312,1.0,6.56,1.0,
155,155.0,0.0,0.0,155.0,left,jl13312,1.0,7.516,0.0,
156,156.0,0.0,0.0,156.0,left,jl13312,1.0,6.979,0.0,
157,157.0,0.0,0.0,157.0,left,jl13312,1.0,5.533,0.0,
158,158.0,0.0,0.0,158.0,left,jl13312,1.0,7.26,0.0,
159,159.0,1.0,25.0,159.0,left,jl13312,1.0,6.57,1.0,
160,160.0,1.0,15.0,160.0,left,jl13312,1.0,8.62,1.0,
161,161.0,0.0,0.0,161.0,left,jl13312,1.0,5.907,0.0,
162,162.0,1.0,60.0,162.0,left,jl13312,1.0,5.689,1.0,
163,163.0,0.0,0.0,163.0,left,jl13312,1.0,5.492999999999999,0.0,
164,164.0,1.0,60.0,164.0,left,jl13312,1.0,6.036,1.0,
165,165.0,0.0,0.0,165.0,left,jl13312,1.0,5.39,0.0,
166,166.0,1.0,10.0,166.0,left,jl13312,1.0,6.1770000000000005,1.0,
167,167.0,0.0,0.0,167.0,left,jl13312,1.0,1465.0449999999998,0.0,
168,168.0,0.0,0.0,168.0,left,jl13312,1.0,5.984,0.0,
169,169.0,1.0,15.0,169.0,left,jl13312,1.0,6.212,1.0,
170,170.0,0.0,0.0,170.0,left,jl13312,1.0,8.218,0.0,
171,171.0,0.0,0.0,171.0,left,jl13312,1.0,7.884,0.0,
172,172.0,0.0,0.0,172.0,left,jl13312,1.0,5.842,0.0,
173,173.0,0.0,0.0,173.0,left,jl13312,1.0,7.125,0.0,
174,174.0,1.0,60.0,174.0,left,jl13312,1.0,6.196,1.0,
175,175.0,0.0,0.0,175.0,left,jl13312,1.0,7.387,0.0,
176,176.0,0.0,0.0,176.0,left,jl13312,1.0,5.982,0.0,
177,177.0,1.0,15.0,177.0,left,jl13312,1.0,7.267,1.0,
178,178.0,0.0,0.0,178.0,left,jl13312,1.0,6.913,0.0,
179,179.0,1.0,25.0,179.0,left,jl13312,1.0,6.253,1.0,
180,180.0,1.0,25.0,180.0,left,jl13312,1.0,6.267,1.0,
181,181.0,1.0,15.0,181.0,left,jl13312,1.0,6.760000000000001,1.0,
182,182.0,1.0,10.0,182.0,left,jl13312,1.0,6.69,1.0,
183,183.0,0.0,0.0,183.0,left,jl13312,1.0,6.414000000000001,0.0,
184,184.0,0.0,0.0,184.0,left,jl13312,1.0,6.061000000000001,0.0,
185,185.0,1.0,15.0,185.0,left,jl13312,1.0,6.831,1.0,
186,186.0,1.0,10.0,186.0,left,jl13312,1.0,6.377,1.0,
187,187.0,1.0,60.0,187.0,left,jl13312,1.0,7.907000000000001,1.0,
188,188.0,1.0,15.0,188.0,left,jl13312,1.0,10.07,1.0,
189,189.0,0.0,0.0,189.0,left,jl13312,1.0,7.097,0.0,
190,190.0,0.0,0.0,190.0,left,jl13312,1.0,7.169,0.0,
191,191.0,1.0,10.0,191.0,left,jl13312,1.0,6.399,1.0,
192,192.0,1.0,10.0,192.0,left,jl13312,1.0,6.892,1.0,
193,193.0,1.0,15.0,193.0,left,jl13312,1.0,6.66,1.0,
194,194.0,1.0,60.0,194.0,left,jl13312,1.0,7.282,1.0,
195,195.0,1.0,15.0,195.0,left,jl13312,1.0,5.687,1.0,
196,196.0,0.0,0.0,196.0,left,jl13312,1.0,6.561,0.0,
197,197.0,1.0,60.0,197.0,left,jl13312,1.0,8.362,1.0,
198,198.0,1.0,15.0,198.0,left,jl13312,1.0,7.37,1.0,
199,199.0,1.0,25.0,199.0,left,jl13312,1.0,7.494,1.0,
200,0.0,1.0,60.0,0.0,left,fj542,1.0,13486.736,1.0,
201,1.0,1.0,10.0,1.0,left,fj542,1.0,7661.937,1.0,
202,2.0,1.0,10.0,2.0,left,fj542,0.0,2515.336,0.0,
203,3.0,1.0,15.0,3.0,left,fj542,0.0,5226.814,0.0,
204,4.0,0.0,0.0,4.0,left,fj542,1.0,6961.878,0.0,
205,5.0,1.0,60.0,5.0,left,fj542,1.0,1329.731,1.0,
206,6.0,0.0,0.0,6.0,left,fj542,0.0,9383.137,1.0,
207,7.0,1.0,60.0,7.0,left,fj542,1.0,1240.261,1.0,
208,8.0,1.0,25.0,8.0,left,fj542,1.0,941.421,1.0,
209,9.0,1.0,15.0,9.0,left,fj542,1.0,1115.41,1.0,
210,10.0,0.0,0.0,10.0,left,fj542,0.0,4323.362,1.0,
211,11.0,0.0,0.0,11.0,left,fj542,0.0,4875.200000000001,1.0,
212,12.0,0.0,0.0,12.0,left,fj542,0.0,1161.171,1.0,
213,13.0,0.0,0.0,13.0,left,fj542,0.0,1693.91,1.0,
214,14.0,1.0,15.0,14.0,left,fj542,1.0,5882.035,1.0,
215,15.0,1.0,10.0,15.0,left,fj542,0.0,2995.242,0.0,
216,16.0,0.0,0.0,16.0,left,fj542,0.0,8797.846,1.0,
217,17.0,0.0,0.0,17.0,left,fj542,0.0,4617.263999999999,1.0,
218,18.0,0.0,0.0,18.0,left,fj542,1.0,6976.495,0.0,
219,19.0,0.0,0.0,19.0,left,fj542,0.0,4229.5,1.0,
220,20.0,1.0,25.0,20.0,left,fj542,1.0,1881.584,1.0,
221,21.0,0.0,0.0,21.0,left,fj542,1.0,1455.77,0.0,
222,22.0,0.0,0.0,22.0,left,fj542,0.0,2596.1240000000003,1.0,
223,23.0,1.0,60.0,23.0,left,fj542,1.0,1705.371,1.0,
224,24.0,1.0,60.0,24.0,left,fj542,1.0,829.78,1.0,
225,25.0,0.0,0.0,25.0,left,fj542,0.0,1966.901,1.0,
226,26.0,1.0,60.0,26.0,left,fj542,1.0,1176.424,1.0,
227,27.0,1.0,10.0,27.0,left,fj542,0.0,4030.517,0.0,
228,28.0,1.0,60.0,28.0,left,fj542,1.0,1343.539,1.0,
229,29.0,0.0,0.0,29.0,left,fj542,0.0,2321.851,1.0,
230,30.0,1.0,15.0,30.0,left,fj542,0.0,1568.9489999999998,0.0,
231,31.0,1.0,25.0,31.0,left,fj542,1.0,1151.846,1.0,
232,32.0,0.0,0.0,32.0,left,fj542,1.0,4895.1320000000005,0.0,
233,33.0,0.0,0.0,33.0,left,fj542,1.0,4330.081,0.0,
234,34.0,0.0,0.0,34.0,left,fj542,0.0,2106.845,1.0,
235,35.0,1.0,60.0,35.0,left,fj542,1.0,1251.385,1.0,
236,36.0,1.0,25.0,36.0,left,fj542,1.0,1063.97,1.0,
237,37.0,1.0,25.0,37.0,left,fj542,1.0,726.557,1.0,
238,38.0,0.0,0.0,38.0,left,fj542,0.0,3863.209,1.0,
239,39.0,1.0,10.0,39.0,left,fj542,0.0,2736.478,0.0,
240,40.0,0.0,0.0,40.0,left,fj542,0.0,3734.174,1.0,
241,41.0,1.0,25.0,41.0,left,fj542,1.0,2167.52,1.0,
242,42.0,1.0,25.0,42.0,left,fj542,1.0,913.409,1.0,
243,43.0,1.0,60.0,43.0,left,fj542,1.0,810.5550000000001,1.0,
244,44.0,1.0,10.0,44.0,left,fj542,0.0,1973.124,0.0,
245,45.0,1.0,25.0,45.0,left,fj542,1.0,1802.459,1.0,
246,46.0,1.0,25.0,46.0,left,fj542,1.0,872.582,1.0,
247,47.0,0.0,0.0,47.0,left,fj542,0.0,1961.364,1.0,
248,48.0,0.0,0.0,48.0,left,fj542,0.0,1345.355,1.0,
249,49.0,0.0,0.0,49.0,left,fj542,0.0,8936.743,1.0,
250,50.0,1.0,10.0,50.0,left,fj542,0.0,1921.916,0.0,
251,51.0,1.0,25.0,51.0,left,fj542,1.0,2273.687,1.0,
252,52.0,0.0,0.0,52.0,left,fj542,0.0,2028.432,1.0,
253,53.0,0.0,0.0,53.0,left,fj542,0.0,3642.565,1.0,
254,54.0,1.0,25.0,54.0,left,fj542,1.0,1267.518,1.0,
255,55.0,0.0,0.0,55.0,left,fj542,0.0,2276.283,1.0,
256,56.0,0.0,0.0,56.0,left,fj542,1.0,2735.127,0.0,
257,57.0,0.0,0.0,57.0,left,fj542,0.0,1720.51,1.0,
258,58.0,0.0,0.0,58.0,left,fj542,1.0,1986.986,0.0,
259,59.0,1.0,25.0,59.0,left,fj542,1.0,1547.566,1.0,
260,60.0,1.0,10.0,60.0,left,fj542,0.0,803.572,0.0,
261,61.0,1.0,15.0,61.0,left,fj542,0.0,1387.762,0.0,
262,62.0,1.0,15.0,62.0,left,fj542,1.0,1777.371,1.0,
263,63.0,1.0,15.0,63.0,left,fj542,0.0,1917.987,0.0,
264,64.0,0.0,0.0,64.0,left,fj542,0.0,2481.347,1.0,
265,65.0,1.0,10.0,65.0,left,fj542,0.0,1116.7910000000002,0.0,
266,66.0,0.0,0.0,66.0,left,fj542,1.0,6856.733,0.0,
267,67.0,0.0,0.0,67.0,left,fj542,0.0,1584.0749999999998,1.0,
268,68.0,1.0,60.0,68.0,left,fj542,1.0,2259.893,1.0,
269,69.0,0.0,0.0,69.0,left,fj542,0.0,2470.9500000000003,1.0,
270,70.0,1.0,60.0,70.0,left,fj542,1.0,1179.798,1.0,
271,71.0,0.0,0.0,71.0,left,fj542,0.0,2534.139,1.0,
272,72.0,0.0,0.0,72.0,left,fj542,0.0,3552.6620000000003,1.0,
273,73.0,0.0,0.0,73.0,left,fj542,1.0,2164.775,0.0,
274,74.0,1.0,10.0,74.0,left,fj542,1.0,2682.528,1.0,
275,75.0,1.0,15.0,75.0,left,fj542,1.0,1900.243,1.0,
276,76.0,1.0,10.0,76.0,left,fj542,0.0,1480.079,0.0,
277,77.0,0.0,0.0,77.0,left,fj542,0.0,1542.241,1.0,
278,78.0,0.0,0.0,78.0,left,fj542,0.0,888.918,1.0,
279,79.0,1.0,25.0,79.0,left,fj542,1.0,1506.8760000000002,1.0,
280,80.0,0.0,0.0,80.0,left,fj542,1.0,2573.761,0.0,
281,81.0,1.0,60.0,81.0,left,fj542,1.0,1312.3339999999998,1.0,
282,82.0,0.0,0.0,82.0,left,fj542,0.0,1573.912,1.0,
283,83.0,0.0,0.0,83.0,left,fj542,0.0,998.023,1.0,
284,84.0,0.0,0.0,84.0,left,fj542,0.0,2732.3430000000003,1.0,
285,85.0,0.0,0.0,85.0,left,fj542,0.0,1992.823,1.0,
286,86.0,1.0,15.0,86.0,left,fj542,1.0,1386.255,1.0,
287,87.0,1.0,25.0,87.0,left,fj542,0.0,2468.162,0.0,
288,88.0,1.0,10.0,88.0,left,fj542,0.0,24.784,0.0,
289,89.0,1.0,60.0,89.0,left,fj542,1.0,1309.774,1.0,
290,90.0,0.0,0.0,90.0,left,fj542,0.0,1272.3,1.0,
291,91.0,0.0,0.0,91.0,left,fj542,1.0,3214.301,0.0,
292,92.0,0.0,0.0,92.0,left,fj542,0.0,5048.049,1.0,
293,93.0,1.0,25.0,93.0,left,fj542,1.0,1600.579,1.0,
294,94.0,1.0,60.0,94.0,left,fj542,1.0,1539.66,1.0,
295,95.0,1.0,10.0,95.0,left,fj542,0.0,1799.971,0.0,
296,96.0,0.0,0.0,96.0,left,fj542,0.0,1531.855,1.0,
297,97.0,0.0,0.0,97.0,left,fj542,0.0,5511.812,1.0,
298,98.0,0.0,0.0,98.0,left,fj542,0.0,3378.4550000000004,1.0,
299,99.0,0.0,0.0,99.0,left,fj542,0.0,1504.2,1.0,
300,100.0,0.0,0.0,100.0,left,fj542,0.0,2746.067,1.0,
301,101.0,0.0,0.0,101.0,left,fj542,0.0,3683.027,1.0,
302,102.0,1.0,25.0,102.0,left,fj542,1.0,2116.42,1.0,
303,103.0,0.0,0.0,103.0,left,fj542,0.0,1503.752,1.0,
304,104.0,1.0,10.0,104.0,left,fj542,0.0,5124.376,0.0,
305,105.0,1.0,15.0,105.0,left,fj542,1.0,1480.102,1.0,
306,106.0,1.0,15.0,106.0,left,fj542,0.0,1437.751,0.0,
307,107.0,0.0,0.0,107.0,left,fj542,0.0,1887.41,1.0,
308,108.0,1.0,15.0,108.0,left,fj542,1.0,1740.985,1.0,
309,109.0,0.0,0.0,109.0,left,fj542,1.0,1894.983,0.0,
310,110.0,0.0,0.0,110.0,left,fj542,0.0,1124.308,1.0,
311,111.0,1.0,10.0,111.0,left,fj542,0.0,1064.0890000000002,0.0,
312,112.0,0.0,0.0,112.0,left,fj542,0.0,1727.967,1.0,
313,113.0,0.0,0.0,113.0,left,fj542,0.0,1254.85,1.0,
314,114.0,0.0,0.0,114.0,left,fj542,0.0,1959.774,1.0,
315,115.0,0.0,0.0,115.0,left,fj542,0.0,872.633,1.0,
316,116.0,0.0,0.0,116.0,left,fj542,0.0,1253.609,1.0,
317,117.0,1.0,25.0,117.0,left,fj542,1.0,1303.352,1.0,
318,118.0,0.0,0.0,118.0,left,fj542,0.0,1670.177,1.0,
319,119.0,1.0,60.0,119.0,left,fj542,1.0,1481.684,1.0,
320,120.0,0.0,0.0,120.0,left,fj542,0.0,1946.137,1.0,
321,121.0,0.0,0.0,121.0,left,fj542,0.0,1509.268,1.0,
322,122.0,1.0,25.0,122.0,left,fj542,0.0,1617.574,0.0,
323,123.0,0.0,0.0,123.0,left,fj542,0.0,1461.204,1.0,
324,124.0,1.0,60.0,124.0,left,fj542,1.0,1703.437,1.0,
325,125.0,0.0,0.0,125.0,left,fj542,0.0,5781.248,1.0,
326,126.0,1.0,10.0,126.0,left,fj542,0.0,926.726,0.0,
327,127.0,1.0,15.0,127.0,left,fj542,0.0,950.036,0.0,
328,128.0,0.0,0.0,128.0,left,fj542,0.0,1397.25,1.0,
329,129.0,0.0,0.0,129.0,left,fj542,0.0,1247.88,1.0,
330,130.0,0.0,0.0,130.0,left,fj542,0.0,1295.583,1.0,
331,131.0,1.0,25.0,131.0,left,fj542,1.0,2055.8900000000003,1.0,
332,132.0,1.0,60.0,132.0,left,fj542,1.0,1149.14,1.0,
333,133.0,1.0,25.0,133.0,left,fj542,1.0,894.6560000000001,1.0,
334,134.0,0.0,0.0,134.0,left,fj542,0.0,1902.327,1.0,
335,135.0,1.0,60.0,135.0,left,fj542,0.0,1168.315,0.0,
336,136.0,0.0,0.0,136.0,left,fj542,0.0,1136.534,1.0,
337,137.0,1.0,10.0,137.0,left,fj542,0.0,1393.565,0.0,
338,138.0,0.0,0.0,138.0,left,fj542,0.0,2794.437,1.0,
339,139.0,1.0,15.0,139.0,left,fj542,0.0,1046.643,0.0,
340,140.0,0.0,0.0,140.0,left,fj542,0.0,1910.503,1.0,
341,141.0,0.0,0.0,141.0,left,fj542,0.0,3233.17,1.0,
342,142.0,0.0,0.0,142.0,left,fj542,0.0,1112.895,1.0,
343,143.0,0.0,0.0,143.0,left,fj542,0.0,1073.175,1.0,
344,144.0,0.0,0.0,144.0,left,fj542,0.0,1195.165,1.0,
345,145.0,0.0,0.0,145.0,left,fj542,1.0,5601.662,0.0,
346,146.0,0.0,0.0,146.0,left,fj542,1.0,2975.261,0.0,
347,147.0,0.0,0.0,147.0,left,fj542,0.0,980.455,1.0,
348,148.0,1.0,10.0,148.0,left,fj542,1.0,2932.168,1.0,
349,149.0,1.0,15.0,149.0,left,fj542,1.0,4785.518,1.0,
350,150.0,1.0,25.0,150.0,left,fj542,1.0,1080.944,1.0,
351,151.0,1.0,10.0,151.0,left,fj542,0.0,1849.035,0.0,
352,152.0,1.0,60.0,152.0,left,fj542,1.0,1035.862,1.0,
353,153.0,1.0,10.0,153.0,left,fj542,0.0,1616.832,0.0,
354,154.0,1.0,15.0,154.0,left,fj542,1.0,1659.189,1.0,
355,155.0,0.0,0.0,155.0,left,fj542,0.0,1001.583,1.0,
356,156.0,0.0,0.0,156.0,left,fj542,0.0,1062.796,1.0,
357,157.0,0.0,0.0,157.0,left,fj542,0.0,813.157,1.0,
358,158.0,0.0,0.0,158.0,left,fj542,0.0,1074.438,1.0,
359,159.0,1.0,25.0,159.0,left,fj542,1.0,2157.962,1.0,
360,160.0,1.0,15.0,160.0,left,fj542,1.0,1745.781,1.0,
361,161.0,0.0,0.0,161.0,left,fj542,0.0,957.689,1.0,
362,162.0,1.0,60.0,162.0,left,fj542,1.0,1167.718,1.0,
363,163.0,0.0,0.0,163.0,left,fj542,0.0,1033.766,1.0,
364,164.0,1.0,60.0,164.0,left,fj542,1.0,1748.4789999999998,1.0,
365,165.0,0.0,0.0,165.0,left,fj542,0.0,2833.139,1.0,
366,166.0,1.0,10.0,166.0,left,fj542,0.0,1254.1180000000002,0.0,
367,167.0,0.0,0.0,167.0,left,fj542,0.0,1278.184,1.0,
368,168.0,0.0,0.0,168.0,left,fj542,0.0,1025.118,1.0,
369,169.0,1.0,15.0,169.0,left,fj542,1.0,1286.9679999999998,1.0,
370,170.0,0.0,0.0,170.0,left,fj542,0.0,741.423,1.0,
371,171.0,0.0,0.0,171.0,left,fj542,0.0,768.143,1.0,
372,172.0,0.0,0.0,172.0,left,fj542,0.0,628.751,1.0,
373,173.0,0.0,0.0,173.0,left,fj542,0.0,673.548,1.0,
374,174.0,1.0,60.0,174.0,left,fj542,1.0,1103.038,1.0,
375,175.0,0.0,0.0,175.0,left,fj542,0.0,1376.8819999999998,1.0,
376,176.0,0.0,0.0,176.0,left,fj542,0.0,733.3420000000001,1.0,
377,177.0,1.0,15.0,177.0,left,fj542,0.0,888.138,0.0,
378,178.0,0.0,0.0,178.0,left,fj542,0.0,717.832,1.0,
379,179.0,1.0,25.0,179.0,left,fj542,1.0,1807.929,1.0,
380,180.0,1.0,25.0,180.0,left,fj542,1.0,1890.167,1.0,
381,181.0,1.0,15.0,181.0,left,fj542,0.0,649.926,0.0,
382,182.0,1.0,10.0,182.0,left,fj542,0.0,1154.257,0.0,
383,183.0,0.0,0.0,183.0,left,fj542,0.0,751.809,1.0,
384,184.0,0.0,0.0,184.0,left,fj542,0.0,714.589,1.0,
385,185.0,1.0,15.0,185.0,left,fj542,1.0,1510.662,1.0,
386,186.0,1.0,10.0,186.0,left,fj542,0.0,779.156,0.0,
387,187.0,1.0,60.0,187.0,left,fj542,1.0,1273.497,1.0,
388,188.0,1.0,15.0,188.0,left,fj542,1.0,890.3839999999999,1.0,
389,189.0,0.0,0.0,189.0,left,fj542,0.0,1023.565,1.0,
390,190.0,0.0,0.0,190.0,left,fj542,0.0,761.707,1.0,
391,191.0,1.0,10.0,191.0,left,fj542,0.0,670.4069999999999,0.0,
392,192.0,1.0,10.0,192.0,left,fj542,0.0,1115.263,0.0,
393,193.0,1.0,15.0,193.0,left,fj542,0.0,5.913,0.0,
394,194.0,1.0,60.0,194.0,left,fj542,1.0,1384.799,1.0,
395,195.0,1.0,15.0,195.0,left,fj542,0.0,1621.63,0.0,
396,196.0,0.0,0.0,196.0,left,fj542,0.0,1656.278,1.0,
397,197.0,1.0,60.0,197.0,left,fj542,1.0,1385.2530000000002,1.0,
398,198.0,1.0,15.0,198.0,left,fj542,1.0,1175.838,1.0,
399,199.0,1.0,25.0,199.0,left,fj542,1.0,2244.393,1.0,
400,0.0,1.0,60.0,0.0,left,js10811,1.0,9117.616,1.0,
401,1.0,1.0,10.0,1.0,left,js10811,1.0,14331.649,1.0,
402,2.0,1.0,10.0,2.0,left,js10811,0.0,2605.318,0.0,
403,3.0,1.0,15.0,3.0,left,js10811,0.0,9748.307,0.0,
404,4.0,0.0,0.0,4.0,left,js10811,0.0,5440.286,1.0,
405,5.0,1.0,60.0,5.0,left,js10811,1.0,2744.544,1.0,
406,6.0,0.0,0.0,6.0,left,js10811,0.0,1696.466,1.0,
407,7.0,1.0,60.0,7.0,left,js10811,1.0,1262.61,1.0,
408,8.0,1.0,25.0,8.0,left,js10811,1.0,2669.111,1.0,
409,9.0,1.0,15.0,9.0,left,js10811,1.0,4369.593,1.0,
410,10.0,0.0,0.0,10.0,left,js10811,0.0,2293.694,1.0,
411,11.0,0.0,0.0,11.0,left,js10811,0.0,1961.266,1.0,
412,12.0,0.0,0.0,12.0,left,js10811,0.0,2251.413,1.0,
413,13.0,0.0,0.0,13.0,left,js10811,0.0,1684.975,1.0,
414,14.0,1.0,15.0,14.0,left,js10811,0.0,15438.705,0.0,
415,15.0,1.0,10.0,15.0,left,js10811,0.0,2713.444,0.0,
416,16.0,0.0,0.0,16.0,left,js10811,0.0,2316.807,1.0,
417,17.0,0.0,0.0,17.0,left,js10811,0.0,4397.057,1.0,
418,18.0,0.0,0.0,18.0,left,js10811,0.0,3144.0,1.0,
419,19.0,0.0,0.0,19.0,left,js10811,0.0,1439.237,1.0,
420,20.0,1.0,25.0,20.0,left,js10811,0.0,14022.44,0.0,
421,21.0,0.0,0.0,21.0,left,js10811,0.0,1389.561,1.0,
422,22.0,0.0,0.0,22.0,left,js10811,0.0,1523.054,1.0,
423,23.0,1.0,60.0,23.0,left,js10811,1.0,1495.614,1.0,
424,24.0,1.0,60.0,24.0,left,js10811,1.0,1276.909,1.0,
425,25.0,0.0,0.0,25.0,left,js10811,0.0,1673.454,1.0,
426,26.0,1.0,60.0,26.0,left,js10811,1.0,1850.594,1.0,
427,27.0,1.0,10.0,27.0,left,js10811,0.0,7740.216,0.0,
428,28.0,1.0,60.0,28.0,left,js10811,1.0,1337.169,1.0,
429,29.0,0.0,0.0,29.0,left,js10811,0.0,2467.683,1.0,
430,30.0,1.0,15.0,30.0,left,js10811,0.0,2303.638,0.0,
431,31.0,1.0,25.0,31.0,left,js10811,1.0,2715.91,1.0,
432,32.0,0.0,0.0,32.0,left,js10811,0.0,1453.779,1.0,
433,33.0,0.0,0.0,33.0,left,js10811,0.0,1994.684,1.0,
434,34.0,0.0,0.0,34.0,left,js10811,0.0,1166.001,1.0,
435,35.0,1.0,60.0,35.0,left,js10811,1.0,6842.107999999999,1.0,
436,36.0,1.0,25.0,36.0,left,js10811,1.0,5979.409000000001,1.0,
437,37.0,1.0,25.0,37.0,left,js10811,1.0,2999.2960000000003,1.0,
438,38.0,0.0,0.0,38.0,left,js10811,0.0,2267.638,1.0,
439,39.0,1.0,10.0,39.0,left,js10811,0.0,556.682,0.0,
440,40.0,0.0,0.0,40.0,left,js10811,0.0,1856.332,1.0,
441,41.0,1.0,25.0,41.0,left,js10811,1.0,6364.643,1.0,
442,42.0,1.0,25.0,42.0,left,js10811,0.0,1798.453,0.0,
443,43.0,1.0,60.0,43.0,left,js10811,1.0,1743.329,1.0,
444,44.0,1.0,10.0,44.0,left,js10811,0.0,1932.362,0.0,
445,45.0,1.0,25.0,45.0,left,js10811,0.0,1666.16,0.0,
446,46.0,1.0,25.0,46.0,left,js10811,0.0,3719.571,0.0,
447,47.0,0.0,0.0,47.0,left,js10811,0.0,1368.083,1.0,
448,48.0,0.0,0.0,48.0,left,js10811,0.0,1080.123,1.0,
449,49.0,0.0,0.0,49.0,left,js10811,0.0,2291.884,1.0,
450,50.0,1.0,10.0,50.0,left,js10811,0.0,1073.419,0.0,
451,51.0,1.0,25.0,51.0,left,js10811,0.0,6195.251,0.0,
452,52.0,0.0,0.0,52.0,left,js10811,0.0,1241.685,1.0,
453,53.0,0.0,0.0,53.0,left,js10811,0.0,1298.936,1.0,
454,54.0,1.0,25.0,54.0,left,js10811,1.0,4005.435,1.0,
455,55.0,0.0,0.0,55.0,left,js10811,0.0,3830.413,1.0,
456,56.0,0.0,0.0,56.0,left,js10811,0.0,1691.681,1.0,
457,57.0,0.0,0.0,57.0,left,js10811,0.0,1269.362,1.0,
458,58.0,0.0,0.0,58.0,left,js10811,0.0,7853.902,1.0,
459,59.0,1.0,25.0,59.0,left,js10811,0.0,1489.6370000000002,0.0,
460,60.0,1.0,10.0,60.0,left,js10811,0.0,1615.263,0.0,
461,61.0,1.0,15.0,61.0,left,js10811,0.0,2748.116,0.0,
462,62.0,1.0,15.0,62.0,left,js10811,0.0,1504.076,0.0,
463,63.0,1.0,15.0,63.0,left,js10811,0.0,3803.467,0.0,
464,64.0,0.0,0.0,64.0,left,js10811,0.0,4717.557,1.0,
465,65.0,1.0,10.0,65.0,left,js10811,0.0,4724.085999999999,0.0,
466,66.0,0.0,0.0,66.0,left,js10811,0.0,2005.245,1.0,
467,67.0,0.0,0.0,67.0,left,js10811,0.0,2752.052,1.0,
468,68.0,1.0,60.0,68.0,left,js10811,1.0,2275.549,1.0,
469,69.0,0.0,0.0,69.0,left,js10811,0.0,3167.9460000000004,1.0,
470,70.0,1.0,60.0,70.0,left,js10811,1.0,5733.609,1.0,
471,71.0,0.0,0.0,71.0,left,js10811,0.0,1501.648,1.0,
472,72.0,0.0,0.0,72.0,left,js10811,0.0,3995.012,1.0,
473,73.0,0.0,0.0,73.0,left,js10811,0.0,1188.7289999999998,1.0,
474,74.0,1.0,10.0,74.0,left,js10811,0.0,3110.856,0.0,
475,75.0,1.0,15.0,75.0,left,js10811,0.0,4467.237,0.0,
476,76.0,1.0,10.0,76.0,left,js10811,0.0,1266.0739999999998,0.0,
477,77.0,0.0,0.0,77.0,left,js10811,0.0,2542.344,1.0,
478,78.0,0.0,0.0,78.0,left,js10811,0.0,1363.749,1.0,
479,79.0,1.0,25.0,79.0,left,js10811,0.0,1958.15,0.0,
480,80.0,0.0,0.0,80.0,left,js10811,0.0,1789.879,1.0,
481,81.0,1.0,60.0,81.0,left,js10811,1.0,2313.48,1.0,
482,82.0,0.0,0.0,82.0,left,js10811,0.0,1786.926,1.0,
483,83.0,0.0,0.0,83.0,left,js10811,0.0,8161.383000000001,1.0,
484,84.0,0.0,0.0,84.0,left,js10811,0.0,2387.119,1.0,
485,85.0,0.0,0.0,85.0,left,js10811,0.0,3124.519,1.0,
486,86.0,1.0,15.0,86.0,left,js10811,0.0,5176.333,0.0,
487,87.0,1.0,25.0,87.0,left,js10811,0.0,3047.127,0.0,
488,88.0,1.0,10.0,88.0,left,js10811,0.0,6134.308,0.0,
489,89.0,1.0,60.0,89.0,left,js10811,1.0,2041.4310000000005,1.0,
490,90.0,0.0,0.0,90.0,left,js10811,0.0,2311.119,1.0,
491,91.0,0.0,0.0,91.0,left,js10811,0.0,2728.2470000000003,1.0,
492,92.0,0.0,0.0,92.0,left,js10811,0.0,1462.974,1.0,
493,93.0,1.0,25.0,93.0,left,js10811,0.0,6888.439,0.0,
494,94.0,1.0,60.0,94.0,left,js10811,1.0,1557.842,1.0,
495,95.0,1.0,10.0,95.0,left,js10811,0.0,2055.576,0.0,
496,96.0,0.0,0.0,96.0,left,js10811,0.0,1329.939,1.0,
497,97.0,0.0,0.0,97.0,left,js10811,0.0,2637.32,1.0,
498,98.0,0.0,0.0,98.0,left,js10811,0.0,3898.842,1.0,
499,99.0,0.0,0.0,99.0,left,js10811,0.0,5972.185,1.0,
500,100.0,0.0,0.0,100.0,left,js10811,0.0,4244.002,1.0,
501,101.0,0.0,0.0,101.0,left,js10811,0.0,5886.184,1.0,
502,102.0,1.0,25.0,102.0,left,js10811,0.0,1522.365,0.0,
503,103.0,0.0,0.0,103.0,left,js10811,0.0,1561.359,1.0,
504,104.0,1.0,10.0,104.0,left,js10811,0.0,2509.943,0.0,
505,105.0,1.0,15.0,105.0,left,js10811,0.0,3069.509,0.0,
506,106.0,1.0,15.0,106.0,left,js10811,0.0,5033.819,0.0,
507,107.0,0.0,0.0,107.0,left,js10811,0.0,4137.63,1.0,
508,108.0,1.0,15.0,108.0,left,js10811,0.0,1834.889,0.0,
509,109.0,0.0,0.0,109.0,left,js10811,0.0,2858.578,1.0,
510,110.0,0.0,0.0,110.0,left,js10811,0.0,30427.389000000003,1.0,
511,111.0,1.0,10.0,111.0,left,js10811,0.0,1418.218,0.0,
512,112.0,0.0,0.0,112.0,left,js10811,0.0,786.785,1.0,
513,113.0,0.0,0.0,113.0,left,js10811,0.0,6890.996999999999,1.0,
514,114.0,0.0,0.0,114.0,left,js10811,0.0,1450.4109999999998,1.0,
515,115.0,0.0,0.0,115.0,left,js10811,0.0,4189.835999999999,1.0,
516,116.0,0.0,0.0,116.0,left,js10811,0.0,1162.829,1.0,
517,117.0,1.0,25.0,117.0,left,js10811,1.0,1550.544,1.0,
518,118.0,0.0,0.0,118.0,left,js10811,0.0,1602.446,1.0,
519,119.0,1.0,60.0,119.0,left,js10811,1.0,2927.5730000000003,1.0,
520,120.0,0.0,0.0,120.0,left,js10811,0.0,1786.435,1.0,
521,121.0,0.0,0.0,121.0,left,js10811,0.0,2626.415,1.0,
522,122.0,1.0,25.0,122.0,left,js10811,0.0,5250.329,0.0,
523,123.0,0.0,0.0,123.0,left,js10811,1.0,74157.488,0.0,
524,124.0,1.0,60.0,124.0,left,js10811,1.0,3417.751,1.0,
525,125.0,0.0,0.0,125.0,left,js10811,0.0,20303.021,1.0,
526,126.0,1.0,10.0,126.0,left,js10811,0.0,10246.303,0.0,
527,127.0,1.0,15.0,127.0,left,js10811,0.0,2366.982,0.0,
528,128.0,0.0,0.0,128.0,left,js10811,0.0,1198.059,1.0,
529,129.0,0.0,0.0,129.0,left,js10811,0.0,8997.916,1.0,
530,130.0,0.0,0.0,130.0,left,js10811,0.0,5597.944,1.0,
531,131.0,1.0,25.0,131.0,left,js10811,0.0,2447.724,0.0,
532,132.0,1.0,60.0,132.0,left,js10811,1.0,1901.762,1.0,
533,133.0,1.0,25.0,133.0,left,js10811,1.0,1813.591,1.0,
534,134.0,0.0,0.0,134.0,left,js10811,0.0,1639.913,1.0,
535,135.0,1.0,60.0,135.0,left,js10811,1.0,1791.292,1.0,
536,136.0,0.0,0.0,136.0,left,js10811,0.0,3547.4480000000003,1.0,
537,137.0,1.0,10.0,137.0,left,js10811,0.0,1463.788,0.0,
538,138.0,0.0,0.0,138.0,left,js10811,0.0,1416.746,1.0,
539,139.0,1.0,15.0,139.0,left,js10811,0.0,1034.623,0.0,
540,140.0,0.0,0.0,140.0,left,js10811,0.0,1446.588,1.0,
541,141.0,0.0,0.0,141.0,left,js10811,0.0,827.741,1.0,
542,142.0,0.0,0.0,142.0,left,js10811,0.0,1343.948,1.0,
543,143.0,0.0,0.0,143.0,left,js10811,0.0,1121.789,1.0,
544,144.0,0.0,0.0,144.0,left,js10811,0.0,1166.6049999999998,1.0,
545,145.0,0.0,0.0,145.0,left,js10811,0.0,1163.354,1.0,
546,146.0,0.0,0.0,146.0,left,js10811,0.0,791.264,1.0,
547,147.0,0.0,0.0,147.0,left,js10811,0.0,2762.124,1.0,
548,148.0,1.0,10.0,148.0,left,js10811,0.0,1168.407,0.0,
549,149.0,1.0,15.0,149.0,left,js10811,0.0,967.825,0.0,
550,150.0,1.0,25.0,150.0,left,js10811,1.0,2144.404,1.0,
551,151.0,1.0,10.0,151.0,left,js10811,0.0,1912.394,0.0,
552,152.0,1.0,60.0,152.0,left,js10811,1.0,1881.623,1.0,
553,153.0,1.0,10.0,153.0,left,js10811,0.0,2675.862,0.0,
554,154.0,1.0,15.0,154.0,left,js10811,0.0,2108.569,0.0,
555,155.0,0.0,0.0,155.0,left,js10811,0.0,1399.687,1.0,
556,156.0,0.0,0.0,156.0,left,js10811,0.0,1237.9979999999998,1.0,
557,157.0,0.0,0.0,157.0,left,js10811,0.0,3766.708,1.0,
558,158.0,0.0,0.0,158.0,left,js10811,0.0,3985.748,1.0,
559,159.0,1.0,25.0,159.0,left,js10811,1.0,1685.4640000000002,1.0,
560,160.0,1.0,15.0,160.0,left,js10811,0.0,1307.56,0.0,
561,161.0,0.0,0.0,161.0,left,js10811,0.0,1374.029,1.0,
562,162.0,1.0,60.0,162.0,left,js10811,1.0,1649.144,1.0,
563,163.0,0.0,0.0,163.0,left,js10811,0.0,1961.177,1.0,
564,164.0,1.0,60.0,164.0,left,js10811,1.0,2053.236,1.0,
565,165.0,0.0,0.0,165.0,left,js10811,0.0,1454.6809999999998,1.0,
566,166.0,1.0,10.0,166.0,left,js10811,0.0,3844.058,0.0,
567,167.0,0.0,0.0,167.0,left,js10811,0.0,3147.3520000000003,1.0,
568,168.0,0.0,0.0,168.0,left,js10811,0.0,2705.898,1.0,
569,169.0,1.0,15.0,169.0,left,js10811,0.0,2570.116,0.0,
570,170.0,0.0,0.0,170.0,left,js10811,0.0,1138.083,1.0,
571,171.0,0.0,0.0,171.0,left,js10811,0.0,2221.551,1.0,
572,172.0,0.0,0.0,172.0,left,js10811,0.0,1340.054,1.0,
573,173.0,0.0,0.0,173.0,left,js10811,0.0,2069.666,1.0,
574,174.0,1.0,60.0,174.0,left,js10811,1.0,2004.868,1.0,
575,175.0,0.0,0.0,175.0,left,js10811,0.0,1510.433,1.0,
576,176.0,0.0,0.0,176.0,left,js10811,0.0,971.541,1.0,
577,177.0,1.0,15.0,177.0,left,js10811,0.0,2641.4,0.0,
578,178.0,0.0,0.0,178.0,left,js10811,0.0,1180.8339999999998,1.0,
579,179.0,1.0,25.0,179.0,left,js10811,0.0,1665.511,0.0,
580,180.0,1.0,25.0,180.0,left,js10811,0.0,782.953,0.0,
581,181.0,1.0,15.0,181.0,left,js10811,0.0,1047.617,0.0,
582,182.0,1.0,10.0,182.0,left,js10811,0.0,844.292,0.0,
583,183.0,0.0,0.0,183.0,left,js10811,0.0,738.5500000000001,1.0,
584,184.0,0.0,0.0,184.0,left,js10811,0.0,829.388,1.0,
585,185.0,1.0,15.0,185.0,left,js10811,1.0,2325.84,1.0,
586,186.0,1.0,10.0,186.0,left,js10811,0.0,968.927,0.0,
587,187.0,1.0,60.0,187.0,left,js10811,1.0,1838.595,1.0,
588,188.0,1.0,15.0,188.0,left,js10811,1.0,1666.841,1.0,
589,189.0,0.0,0.0,189.0,left,js10811,0.0,919.018,1.0,
590,190.0,0.0,0.0,190.0,left,js10811,0.0,849.792,1.0,
591,191.0,1.0,10.0,191.0,left,js10811,0.0,835.305,0.0,
592,192.0,1.0,10.0,192.0,left,js10811,0.0,732.463,0.0,
593,193.0,1.0,15.0,193.0,left,js10811,0.0,878.061,0.0,
594,194.0,1.0,60.0,194.0,left,js10811,1.0,1545.665,1.0,
595,195.0,1.0,15.0,195.0,left,js10811,0.0,848.2429999999999,0.0,
596,196.0,0.0,0.0,196.0,left,js10811,0.0,817.473,1.0,
597,197.0,1.0,60.0,197.0,left,js10811,1.0,2023.736,1.0,
598,198.0,1.0,15.0,198.0,left,js10811,0.0,1227.864,0.0,
599,199.0,1.0,25.0,199.0,left,js10811,0.0,1589.231,0.0,
600,0.0,1.0,60.0,0.0,left,ac8129,1.0,8797.11,1.0,
601,1.0,1.0,10.0,1.0,left,ac8129,1.0,8868.734,1.0,
602,2.0,1.0,10.0,2.0,left,ac8129,0.0,9870.706,0.0,
603,3.0,1.0,15.0,3.0,left,ac8129,0.0,3106.684,0.0,
604,4.0,0.0,0.0,4.0,left,ac8129,0.0,10270.811,1.0,
605,5.0,1.0,60.0,5.0,left,ac8129,1.0,1684.256,1.0,
606,6.0,0.0,0.0,6.0,left,ac8129,0.0,12852.273,1.0,
607,7.0,1.0,60.0,7.0,left,ac8129,1.0,1556.317,1.0,
608,8.0,1.0,25.0,8.0,left,ac8129,1.0,1239.347,1.0,
609,9.0,1.0,15.0,9.0,left,ac8129,1.0,4553.142,1.0,
610,10.0,0.0,0.0,10.0,left,ac8129,0.0,10208.619,1.0,
611,11.0,0.0,0.0,11.0,left,ac8129,0.0,3371.822,1.0,
612,12.0,0.0,0.0,12.0,left,ac8129,0.0,1354.3719999999998,1.0,
613,13.0,0.0,0.0,13.0,left,ac8129,0.0,2608.293,1.0,
614,14.0,1.0,15.0,14.0,left,ac8129,1.0,5279.784000000001,1.0,
615,15.0,1.0,10.0,15.0,left,ac8129,0.0,7564.911999999999,0.0,
616,16.0,0.0,0.0,16.0,left,ac8129,1.0,2853.62,0.0,
617,17.0,0.0,0.0,17.0,left,ac8129,0.0,5735.473,1.0,
618,18.0,0.0,0.0,18.0,left,ac8129,0.0,9251.489,1.0,
619,19.0,0.0,0.0,19.0,left,ac8129,0.0,4790.625999999999,1.0,
620,20.0,1.0,25.0,20.0,left,ac8129,1.0,1509.5510000000002,1.0,
621,21.0,0.0,0.0,21.0,left,ac8129,0.0,11863.64,1.0,
622,22.0,0.0,0.0,22.0,left,ac8129,0.0,1911.491,1.0,
623,23.0,1.0,60.0,23.0,left,ac8129,1.0,1247.622,1.0,
624,24.0,1.0,60.0,24.0,left,ac8129,1.0,1291.1950000000002,1.0,
625,25.0,0.0,0.0,25.0,left,ac8129,0.0,6322.262000000001,1.0,
626,26.0,1.0,60.0,26.0,left,ac8129,1.0,1095.283,1.0,
627,27.0,1.0,10.0,27.0,left,ac8129,1.0,2584.872,1.0,
628,28.0,1.0,60.0,28.0,left,ac8129,1.0,957.172,1.0,
629,29.0,0.0,0.0,29.0,left,ac8129,0.0,3423.6,1.0,
630,30.0,1.0,15.0,30.0,left,ac8129,0.0,2183.404,0.0,
631,31.0,1.0,25.0,31.0,left,ac8129,1.0,2273.431,1.0,
632,32.0,0.0,0.0,32.0,left,ac8129,0.0,12391.178,1.0,
633,33.0,0.0,0.0,33.0,left,ac8129,0.0,3008.758,1.0,
634,34.0,0.0,0.0,34.0,left,ac8129,0.0,2871.578,1.0,
635,35.0,1.0,60.0,35.0,left,ac8129,1.0,1427.441,1.0,
636,36.0,1.0,25.0,36.0,left,ac8129,1.0,4073.494,1.0,
637,37.0,1.0,25.0,37.0,left,ac8129,1.0,1058.158,1.0,
638,38.0,0.0,0.0,38.0,left,ac8129,0.0,2299.127,1.0,
639,39.0,1.0,10.0,39.0,left,ac8129,0.0,3251.318,0.0,
640,40.0,0.0,0.0,40.0,left,ac8129,0.0,10992.222,1.0,
641,41.0,1.0,25.0,41.0,left,ac8129,1.0,1939.64,1.0,
642,42.0,1.0,25.0,42.0,left,ac8129,1.0,7451.863,1.0,
643,43.0,1.0,60.0,43.0,left,ac8129,1.0,1337.8190000000002,1.0,
644,44.0,1.0,10.0,44.0,left,ac8129,1.0,5878.604,1.0,
645,45.0,1.0,25.0,45.0,left,ac8129,0.0,1889.462,0.0,
646,46.0,1.0,25.0,46.0,left,ac8129,1.0,1387.432,1.0,
647,47.0,0.0,0.0,47.0,left,ac8129,0.0,1207.924,1.0,
648,48.0,0.0,0.0,48.0,left,ac8129,0.0,1158.6,1.0,
649,49.0,0.0,0.0,49.0,left,ac8129,1.0,2823.262,0.0,
650,50.0,1.0,10.0,50.0,left,ac8129,0.0,2232.857,0.0,
651,51.0,1.0,25.0,51.0,left,ac8129,1.0,2251.1510000000003,1.0,
652,52.0,0.0,0.0,52.0,left,ac8129,0.0,2293.726,1.0,
653,53.0,0.0,0.0,53.0,left,ac8129,0.0,1341.164,1.0,
654,54.0,1.0,25.0,54.0,left,ac8129,0.0,930.823,0.0,
655,55.0,0.0,0.0,55.0,left,ac8129,1.0,28.061,0.0,
656,56.0,0.0,0.0,56.0,left,ac8129,1.0,8.708,0.0,
657,57.0,0.0,0.0,57.0,left,ac8129,0.0,1409.323,1.0,
658,58.0,0.0,0.0,58.0,left,ac8129,1.0,12800.628,0.0,
659,59.0,1.0,25.0,59.0,left,ac8129,1.0,1809.225,1.0,
660,60.0,1.0,10.0,60.0,left,ac8129,0.0,1007.963,0.0,
661,61.0,1.0,15.0,61.0,left,ac8129,0.0,1367.107,0.0,
662,62.0,1.0,15.0,62.0,left,ac8129,0.0,2314.911,0.0,
663,63.0,1.0,15.0,63.0,left,ac8129,0.0,1635.148,0.0,
664,64.0,0.0,0.0,64.0,left,ac8129,0.0,1789.649,1.0,
665,65.0,1.0,10.0,65.0,left,ac8129,0.0,2186.289,0.0,
666,66.0,0.0,0.0,66.0,left,ac8129,0.0,5452.406,1.0,
667,67.0,0.0,0.0,67.0,left,ac8129,0.0,1388.592,1.0,
668,68.0,1.0,60.0,68.0,left,ac8129,1.0,1395.411,1.0,
669,69.0,0.0,0.0,69.0,left,ac8129,0.0,5173.174999999999,1.0,
670,70.0,1.0,60.0,70.0,left,ac8129,1.0,1004.81,1.0,
671,71.0,0.0,0.0,71.0,left,ac8129,0.0,3421.763,1.0,
672,72.0,0.0,0.0,72.0,left,ac8129,0.0,1767.695,1.0,
673,73.0,0.0,0.0,73.0,left,ac8129,0.0,4340.229,1.0,
674,74.0,1.0,10.0,74.0,left,ac8129,0.0,2926.195,0.0,
675,75.0,1.0,15.0,75.0,left,ac8129,1.0,14447.913,1.0,
676,76.0,1.0,10.0,76.0,left,ac8129,0.0,2447.962,0.0,
677,77.0,0.0,0.0,77.0,left,ac8129,0.0,1367.106,1.0,
678,78.0,0.0,0.0,78.0,left,ac8129,0.0,9244.058,1.0,
679,79.0,1.0,25.0,79.0,left,ac8129,1.0,1628.967,1.0,
680,80.0,0.0,0.0,80.0,left,ac8129,0.0,7781.335,1.0,
681,81.0,1.0,60.0,81.0,left,ac8129,1.0,1731.5510000000002,1.0,
682,82.0,0.0,0.0,82.0,left,ac8129,0.0,2210.933,1.0,
683,83.0,0.0,0.0,83.0,left,ac8129,0.0,8124.544,1.0,
684,84.0,0.0,0.0,84.0,left,ac8129,0.0,9276.313,1.0,
685,85.0,0.0,0.0,85.0,left,ac8129,1.0,9356.718,0.0,
686,86.0,1.0,15.0,86.0,left,ac8129,1.0,1249.635,1.0,
687,87.0,1.0,25.0,87.0,left,ac8129,1.0,17733.956,1.0,
688,88.0,1.0,10.0,88.0,left,ac8129,0.0,12307.252,0.0,
689,89.0,1.0,60.0,89.0,left,ac8129,1.0,919.951,1.0,
690,90.0,0.0,0.0,90.0,left,ac8129,0.0,1632.0939999999998,1.0,
691,91.0,0.0,0.0,91.0,left,ac8129,0.0,2516.486,1.0,
692,92.0,0.0,0.0,92.0,left,ac8129,0.0,7225.388,1.0,
693,93.0,1.0,25.0,93.0,left,ac8129,1.0,1513.25,1.0,
694,94.0,1.0,60.0,94.0,left,ac8129,1.0,1247.665,1.0,
695,95.0,1.0,10.0,95.0,left,ac8129,0.0,1864.607,0.0,
696,96.0,0.0,0.0,96.0,left,ac8129,0.0,1892.728,1.0,
697,97.0,0.0,0.0,97.0,left,ac8129,0.0,1670.159,1.0,
698,98.0,0.0,0.0,98.0,left,ac8129,0.0,1985.126,1.0,
699,99.0,0.0,0.0,99.0,left,ac8129,0.0,1255.587,1.0,
700,100.0,0.0,0.0,100.0,left,ac8129,0.0,1417.248,1.0,
701,101.0,0.0,0.0,101.0,left,ac8129,0.0,8435.653999999999,1.0,
702,102.0,1.0,25.0,102.0,left,ac8129,1.0,1649.225,1.0,
703,103.0,0.0,0.0,103.0,left,ac8129,0.0,1933.972,1.0,
704,104.0,1.0,10.0,104.0,left,ac8129,0.0,18336.409,0.0,
705,105.0,1.0,15.0,105.0,left,ac8129,1.0,7955.443,1.0,
706,106.0,1.0,15.0,106.0,left,ac8129,0.0,1588.413,0.0,
707,107.0,0.0,0.0,107.0,left,ac8129,0.0,1786.153,1.0,
708,108.0,1.0,15.0,108.0,left,ac8129,0.0,3910.046,0.0,
709,109.0,0.0,0.0,109.0,left,ac8129,0.0,1702.768,1.0,
710,110.0,0.0,0.0,110.0,left,ac8129,0.0,1981.728,1.0,
711,111.0,1.0,10.0,111.0,left,ac8129,0.0,2877.012,0.0,
712,112.0,0.0,0.0,112.0,left,ac8129,0.0,106954.641,1.0,
713,113.0,0.0,0.0,113.0,left,ac8129,1.0,2853.428,0.0,
714,114.0,0.0,0.0,114.0,left,ac8129,1.0,1408.9910000000002,0.0,
715,115.0,0.0,0.0,115.0,left,ac8129,0.0,1282.57,1.0,
716,116.0,0.0,0.0,116.0,left,ac8129,0.0,1961.206,1.0,
717,117.0,1.0,25.0,117.0,left,ac8129,1.0,1239.39,1.0,
718,118.0,0.0,0.0,118.0,left,ac8129,0.0,4242.742,1.0,
719,119.0,1.0,60.0,119.0,left,ac8129,1.0,1196.915,1.0,
720,120.0,0.0,0.0,120.0,left,ac8129,0.0,2292.046,1.0,
721,121.0,0.0,0.0,121.0,left,ac8129,0.0,1793.408,1.0,
722,122.0,1.0,25.0,122.0,left,ac8129,1.0,1372.671,1.0,
723,123.0,0.0,0.0,123.0,left,ac8129,0.0,840.6759999999999,1.0,
724,124.0,1.0,60.0,124.0,left,ac8129,1.0,1079.616,1.0,
725,125.0,0.0,0.0,125.0,left,ac8129,0.0,5541.633,1.0,
726,126.0,1.0,10.0,126.0,left,ac8129,0.0,2147.5550000000003,0.0,
727,127.0,1.0,15.0,127.0,left,ac8129,0.0,1344.024,0.0,
728,128.0,0.0,0.0,128.0,left,ac8129,0.0,2560.174,1.0,
729,129.0,0.0,0.0,129.0,left,ac8129,0.0,1219.939,1.0,
730,130.0,0.0,0.0,130.0,left,ac8129,0.0,2206.974,1.0,
731,131.0,1.0,25.0,131.0,left,ac8129,1.0,1844.394,1.0,
732,132.0,1.0,60.0,132.0,left,ac8129,1.0,550.389,1.0,
733,133.0,1.0,25.0,133.0,left,ac8129,1.0,845.866,1.0,
734,134.0,0.0,0.0,134.0,left,ac8129,0.0,1963.939,1.0,
735,135.0,1.0,60.0,135.0,left,ac8129,1.0,1396.161,1.0,
736,136.0,0.0,0.0,136.0,left,ac8129,0.0,1037.778,1.0,
737,137.0,1.0,10.0,137.0,left,ac8129,0.0,2043.138,0.0,
738,138.0,0.0,0.0,138.0,left,ac8129,1.0,3421.3140000000003,0.0,
739,139.0,1.0,15.0,139.0,left,ac8129,0.0,1023.321,0.0,
740,140.0,0.0,0.0,140.0,left,ac8129,1.0,2418.666,0.0,
741,141.0,0.0,0.0,141.0,left,ac8129,0.0,1040.756,1.0,
742,142.0,0.0,0.0,142.0,left,ac8129,0.0,1619.788,1.0,
743,143.0,0.0,0.0,143.0,left,ac8129,0.0,9386.623,1.0,
744,144.0,0.0,0.0,144.0,left,ac8129,1.0,1733.497,0.0,
745,145.0,0.0,0.0,145.0,left,ac8129,1.0,3552.587,0.0,
746,146.0,0.0,0.0,146.0,left,ac8129,0.0,1137.748,1.0,
747,147.0,0.0,0.0,147.0,left,ac8129,0.0,1276.709,1.0,
748,148.0,1.0,10.0,148.0,left,ac8129,1.0,2279.146,1.0,
749,149.0,1.0,15.0,149.0,left,ac8129,1.0,14331.043,1.0,
750,150.0,1.0,25.0,150.0,left,ac8129,1.0,1794.865,1.0,
751,151.0,1.0,10.0,151.0,left,ac8129,1.0,3625.494,1.0,
752,152.0,1.0,60.0,152.0,left,ac8129,1.0,2001.076,1.0,
753,153.0,1.0,10.0,153.0,left,ac8129,0.0,5046.544,0.0,
754,154.0,1.0,15.0,154.0,left,ac8129,1.0,1577.857,1.0,
755,155.0,0.0,0.0,155.0,left,ac8129,0.0,4284.46,1.0,
756,156.0,0.0,0.0,156.0,left,ac8129,0.0,2338.851,1.0,
757,157.0,0.0,0.0,157.0,left,ac8129,0.0,4008.44,1.0,
758,158.0,0.0,0.0,158.0,left,ac8129,0.0,1100.856,1.0,
759,159.0,1.0,25.0,159.0,left,ac8129,1.0,1510.431,1.0,
760,160.0,1.0,15.0,160.0,left,ac8129,1.0,2258.884,1.0,
761,161.0,0.0,0.0,161.0,left,ac8129,0.0,1735.53,1.0,
762,162.0,1.0,60.0,162.0,left,ac8129,1.0,1184.517,1.0,
763,163.0,0.0,0.0,163.0,left,ac8129,0.0,4295.299,1.0,
764,164.0,1.0,60.0,164.0,left,ac8129,1.0,2643.608,1.0,
765,165.0,0.0,0.0,165.0,left,ac8129,0.0,1784.508,1.0,
766,166.0,1.0,10.0,166.0,left,ac8129,0.0,1917.082,0.0,
767,167.0,0.0,0.0,167.0,left,ac8129,0.0,56538.816,1.0,
768,168.0,0.0,0.0,168.0,left,ac8129,0.0,2081.938,1.0,
769,169.0,1.0,15.0,169.0,left,ac8129,1.0,2144.2580000000003,1.0,
770,170.0,0.0,0.0,170.0,left,ac8129,0.0,2322.9790000000003,1.0,
771,171.0,0.0,0.0,171.0,left,ac8129,0.0,1063.833,1.0,
772,172.0,0.0,0.0,172.0,left,ac8129,0.0,1536.844,1.0,
773,173.0,0.0,0.0,173.0,left,ac8129,0.0,1154.889,1.0,
774,174.0,1.0,60.0,174.0,left,ac8129,1.0,1383.999,1.0,
775,175.0,0.0,0.0,175.0,left,ac8129,0.0,2073.74,1.0,
776,176.0,0.0,0.0,176.0,left,ac8129,0.0,1902.727,1.0,
777,177.0,1.0,15.0,177.0,left,ac8129,1.0,5176.999000000001,1.0,
778,178.0,0.0,0.0,178.0,left,ac8129,0.0,845.936,1.0,
779,179.0,1.0,25.0,179.0,left,ac8129,1.0,2362.64,1.0,
780,180.0,1.0,25.0,180.0,left,ac8129,1.0,2544.029,1.0,
781,181.0,1.0,15.0,181.0,left,ac8129,0.0,2070.229,0.0,
782,182.0,1.0,10.0,182.0,left,ac8129,1.0,1954.965,1.0,
783,183.0,0.0,0.0,183.0,left,ac8129,0.0,1417.305,1.0,
784,184.0,0.0,0.0,184.0,left,ac8129,0.0,1450.449,1.0,
785,185.0,1.0,15.0,185.0,left,ac8129,1.0,1810.112,1.0,
786,186.0,1.0,10.0,186.0,left,ac8129,0.0,1686.213,0.0,
787,187.0,1.0,60.0,187.0,left,ac8129,1.0,1266.8950000000002,1.0,
788,188.0,1.0,15.0,188.0,left,ac8129,1.0,2013.39,1.0,
789,189.0,0.0,0.0,189.0,left,ac8129,0.0,5467.231,1.0,
790,190.0,0.0,0.0,190.0,left,ac8129,0.0,2063.432,1.0,
791,191.0,1.0,10.0,191.0,left,ac8129,0.0,2350.611,0.0,
792,192.0,1.0,10.0,192.0,left,ac8129,0.0,1662.922,0.0,
793,193.0,1.0,15.0,193.0,left,ac8129,0.0,876.6659999999999,0.0,
794,194.0,1.0,60.0,194.0,left,ac8129,1.0,1119.534,1.0,
795,195.0,1.0,15.0,195.0,left,ac8129,0.0,3728.14,0.0,
796,196.0,0.0,0.0,196.0,left,ac8129,0.0,5658.061,1.0,
797,197.0,1.0,60.0,197.0,left,ac8129,1.0,3311.0,1.0,
798,198.0,1.0,15.0,198.0,left,ac8129,1.0,1856.558,1.0,
799,199.0,1.0,25.0,199.0,left,ac8129,1.0,1347.543,1.0,
800,0.0,1.0,60.0,0.0,right,zc159,1.0,2313.046,1.0,
801,1.0,1.0,10.0,1.0,right,zc159,1.0,5128.274,1.0,
802,2.0,1.0,10.0,2.0,right,zc159,0.0,1499.605,0.0,
803,3.0,1.0,15.0,3.0,right,zc159,0.0,77279.292,0.0,
804,4.0,0.0,0.0,4.0,right,zc159,0.0,12633.351,1.0,
805,5.0,1.0,60.0,5.0,right,zc159,1.0,36184.584,1.0,
806,6.0,0.0,0.0,6.0,right,zc159,0.0,1982.176,1.0,
807,7.0,1.0,60.0,7.0,right,zc159,1.0,990.545,1.0,
808,8.0,1.0,25.0,8.0,right,zc159,1.0,1034.739,1.0,
809,9.0,1.0,15.0,9.0,right,zc159,0.0,1453.758,0.0,
810,10.0,0.0,0.0,10.0,right,zc159,0.0,1554.558,1.0,
811,11.0,0.0,0.0,11.0,right,zc159,0.0,1109.926,1.0,
812,12.0,0.0,0.0,12.0,right,zc159,0.0,783.095,1.0,
813,13.0,0.0,0.0,13.0,right,zc159,0.0,639.325,1.0,
814,14.0,1.0,15.0,14.0,right,zc159,0.0,1164.665,0.0,
815,15.0,1.0,10.0,15.0,right,zc159,0.0,875.949,0.0,
816,16.0,0.0,0.0,16.0,right,zc159,0.0,757.312,1.0,
817,17.0,0.0,0.0,17.0,right,zc159,0.0,571.1500000000001,1.0,
818,18.0,0.0,0.0,18.0,right,zc159,0.0,648.4440000000001,1.0,
819,19.0,0.0,0.0,19.0,right,zc159,0.0,676.37,1.0,
820,20.0,1.0,25.0,20.0,right,zc159,0.0,555.1080000000001,0.0,
821,21.0,0.0,0.0,21.0,right,zc159,0.0,510.948,1.0,
822,22.0,0.0,0.0,22.0,right,zc159,0.0,566.138,1.0,
823,23.0,1.0,60.0,23.0,right,zc159,1.0,1138.723,1.0,
824,24.0,1.0,60.0,24.0,right,zc159,1.0,953.689,1.0,
825,25.0,0.0,0.0,25.0,right,zc159,0.0,707.318,1.0,
826,26.0,1.0,60.0,26.0,right,zc159,1.0,1138.5320000000002,1.0,
827,27.0,1.0,10.0,27.0,right,zc159,0.0,59588.043,0.0,
828,28.0,1.0,60.0,28.0,right,zc159,1.0,980.668,1.0,
829,29.0,0.0,0.0,29.0,right,zc159,0.0,601.522,1.0,
830,30.0,1.0,15.0,30.0,right,zc159,0.0,858.663,0.0,
831,31.0,1.0,25.0,31.0,right,zc159,0.0,676.5799999999999,0.0,
832,32.0,0.0,0.0,32.0,right,zc159,0.0,565.937,1.0,
833,33.0,0.0,0.0,33.0,right,zc159,0.0,501.595,1.0,
834,34.0,0.0,0.0,34.0,right,zc159,0.0,501.4450000000001,1.0,
835,35.0,1.0,60.0,35.0,right,zc159,1.0,925.646,1.0,
836,36.0,1.0,25.0,36.0,right,zc159,1.0,641.383,1.0,
837,37.0,1.0,25.0,37.0,right,zc159,1.0,833.6400000000001,1.0,
838,38.0,0.0,0.0,38.0,right,zc159,0.0,815.548,1.0,
839,39.0,1.0,10.0,39.0,right,zc159,0.0,731.189,0.0,
840,40.0,0.0,0.0,40.0,right,zc159,0.0,573.053,1.0,
841,41.0,1.0,25.0,41.0,right,zc159,0.0,1170.979,0.0,
842,42.0,1.0,25.0,42.0,right,zc159,0.0,188788.48,0.0,
843,43.0,1.0,60.0,43.0,right,zc159,1.0,1100.919,1.0,
844,44.0,1.0,10.0,44.0,right,zc159,0.0,2391.488,0.0,
845,45.0,1.0,25.0,45.0,right,zc159,0.0,895.594,0.0,
846,46.0,1.0,25.0,46.0,right,zc159,0.0,786.296,0.0,
847,47.0,0.0,0.0,47.0,right,zc159,0.0,732.2429999999999,1.0,
848,48.0,0.0,0.0,48.0,right,zc159,0.0,952.596,1.0,
849,49.0,0.0,0.0,49.0,right,zc159,0.0,1630.332,1.0,
850,50.0,1.0,10.0,50.0,right,zc159,0.0,46185.312000000005,0.0,
851,51.0,1.0,25.0,51.0,right,zc159,0.0,1117.872,0.0,
852,52.0,0.0,0.0,52.0,right,zc159,0.0,501.73,1.0,
853,53.0,0.0,0.0,53.0,right,zc159,0.0,479.984,1.0,
854,54.0,1.0,25.0,54.0,right,zc159,0.0,524.927,0.0,
855,55.0,0.0,0.0,55.0,right,zc159,0.0,526.5490000000001,1.0,
856,56.0,0.0,0.0,56.0,right,zc159,0.0,456.603,1.0,
857,57.0,0.0,0.0,57.0,right,zc159,0.0,650.101,1.0,
858,58.0,0.0,0.0,58.0,right,zc159,0.0,523.063,1.0,
859,59.0,1.0,25.0,59.0,right,zc159,0.0,524.541,0.0,
860,60.0,1.0,10.0,60.0,right,zc159,0.0,656.279,0.0,
861,61.0,1.0,15.0,61.0,right,zc159,0.0,1472.436,0.0,
862,62.0,1.0,15.0,62.0,right,zc159,0.0,689.348,0.0,
863,63.0,1.0,15.0,63.0,right,zc159,0.0,4294.062,0.0,
864,64.0,0.0,0.0,64.0,right,zc159,0.0,1990.275,1.0,
865,65.0,1.0,10.0,65.0,right,zc159,0.0,885.934,0.0,
866,66.0,0.0,0.0,66.0,right,zc159,0.0,260260.838,1.0,
867,67.0,0.0,0.0,67.0,right,zc159,0.0,675.611,1.0,
868,68.0,1.0,60.0,68.0,right,zc159,1.0,1267.929,1.0,
869,69.0,0.0,0.0,69.0,right,zc159,0.0,1140.948,1.0,
870,70.0,1.0,60.0,70.0,right,zc159,1.0,1126.241,1.0,
871,71.0,0.0,0.0,71.0,right,zc159,0.0,603.6329999999999,1.0,
872,72.0,0.0,0.0,72.0,right,zc159,0.0,869.066,1.0,
873,73.0,0.0,0.0,73.0,right,zc159,0.0,752.3,1.0,
874,74.0,1.0,10.0,74.0,right,zc159,0.0,668.357,0.0,
875,75.0,1.0,15.0,75.0,right,zc159,0.0,572.517,0.0,
876,76.0,1.0,10.0,76.0,right,zc159,0.0,471.899,0.0,
877,77.0,0.0,0.0,77.0,right,zc159,0.0,479.984,1.0,
878,78.0,0.0,0.0,78.0,right,zc159,0.0,453.77,1.0,
879,79.0,1.0,25.0,79.0,right,zc159,0.0,439.875,0.0,
880,80.0,0.0,0.0,80.0,right,zc159,0.0,471.574,1.0,
881,81.0,1.0,60.0,81.0,right,zc159,1.0,1316.0369999999998,1.0,
882,82.0,0.0,0.0,82.0,right,zc159,0.0,1171.7759999999998,1.0,
883,83.0,0.0,0.0,83.0,right,zc159,0.0,519.563,1.0,
884,84.0,0.0,0.0,84.0,right,zc159,0.0,483.232,1.0,
885,85.0,0.0,0.0,85.0,right,zc159,0.0,431.384,1.0,
886,86.0,1.0,15.0,86.0,right,zc159,0.0,433.529,0.0,
887,87.0,1.0,25.0,87.0,right,zc159,0.0,349.797,0.0,
888,88.0,1.0,10.0,88.0,right,zc159,0.0,402.907,0.0,
889,89.0,1.0,60.0,89.0,right,zc159,0.0,348.441,0.0,
890,90.0,0.0,0.0,90.0,right,zc159,0.0,407.844,1.0,
891,91.0,0.0,0.0,91.0,right,zc159,0.0,512.1790000000001,1.0,
892,92.0,0.0,0.0,92.0,right,zc159,0.0,768.3389999999999,1.0,
893,93.0,1.0,25.0,93.0,right,zc159,0.0,1283.434,0.0,
894,94.0,1.0,60.0,94.0,right,zc159,1.0,1508.564,1.0,
895,95.0,1.0,10.0,95.0,right,zc159,0.0,46698.8,0.0,
896,96.0,0.0,0.0,96.0,right,zc159,0.0,1080.714,1.0,
897,97.0,0.0,0.0,97.0,right,zc159,0.0,705.192,1.0,
898,98.0,0.0,0.0,98.0,right,zc159,0.0,689.337,1.0,
899,99.0,0.0,0.0,99.0,right,zc159,0.0,530.024,1.0,
900,100.0,0.0,0.0,100.0,right,zc159,0.0,587.879,1.0,
901,101.0,0.0,0.0,101.0,right,zc159,0.0,474.215,1.0,
902,102.0,1.0,25.0,102.0,right,zc159,0.0,587.447,0.0,
903,103.0,0.0,0.0,103.0,right,zc159,0.0,1040.824,1.0,
904,104.0,1.0,10.0,104.0,right,zc159,0.0,560.48,0.0,
905,105.0,1.0,15.0,105.0,right,zc159,0.0,683.227,0.0,
906,106.0,1.0,15.0,106.0,right,zc159,0.0,756.345,0.0,
907,107.0,0.0,0.0,107.0,right,zc159,0.0,753.773,1.0,
908,108.0,1.0,15.0,108.0,right,zc159,0.0,923.891,0.0,
909,109.0,0.0,0.0,109.0,right,zc159,0.0,560.695,1.0,
910,110.0,0.0,0.0,110.0,right,zc159,0.0,1126.502,1.0,
911,111.0,1.0,10.0,111.0,right,zc159,0.0,754.2769999999999,0.0,
912,112.0,0.0,0.0,112.0,right,zc159,0.0,547.4639999999999,1.0,
913,113.0,0.0,0.0,113.0,right,zc159,0.0,708.952,1.0,
914,114.0,0.0,0.0,114.0,right,zc159,0.0,531.084,1.0,
915,115.0,0.0,0.0,115.0,right,zc159,0.0,593.401,1.0,
916,116.0,0.0,0.0,116.0,right,zc159,0.0,760.8340000000001,1.0,
917,117.0,1.0,25.0,117.0,right,zc159,0.0,710.4449999999999,0.0,
918,118.0,0.0,0.0,118.0,right,zc159,0.0,674.395,1.0,
919,119.0,1.0,60.0,119.0,right,zc159,1.0,1214.01,1.0,
920,120.0,0.0,0.0,120.0,right,zc159,0.0,1466.197,1.0,
921,121.0,0.0,0.0,121.0,right,zc159,0.0,555.922,1.0,
922,122.0,1.0,25.0,122.0,right,zc159,0.0,435.732,0.0,
923,123.0,0.0,0.0,123.0,right,zc159,0.0,434.966,1.0,
924,124.0,1.0,60.0,124.0,right,zc159,0.0,495.428,0.0,
925,125.0,0.0,0.0,125.0,right,zc159,0.0,488.968,1.0,
926,126.0,1.0,10.0,126.0,right,zc159,0.0,441.584,0.0,
927,127.0,1.0,15.0,127.0,right,zc159,0.0,533.059,0.0,
928,128.0,0.0,0.0,128.0,right,zc159,0.0,447.159,1.0,
929,129.0,0.0,0.0,129.0,right,zc159,0.0,374.797,1.0,
930,130.0,0.0,0.0,130.0,right,zc159,0.0,459.024,1.0,
931,131.0,1.0,25.0,131.0,right,zc159,0.0,594.947,0.0,
932,132.0,1.0,60.0,132.0,right,zc159,1.0,1101.671,1.0,
933,133.0,1.0,25.0,133.0,right,zc159,1.0,1267.103,1.0,
934,134.0,0.0,0.0,134.0,right,zc159,0.0,1372.83,1.0,
935,135.0,1.0,60.0,135.0,right,zc159,1.0,30443.288,1.0,
936,136.0,0.0,0.0,136.0,right,zc159,0.0,638.783,1.0,
937,137.0,1.0,10.0,137.0,right,zc159,0.0,461.969,0.0,
938,138.0,0.0,0.0,138.0,right,zc159,0.0,1121.905,1.0,
939,139.0,1.0,15.0,139.0,right,zc159,0.0,699.126,0.0,
940,140.0,0.0,0.0,140.0,right,zc159,0.0,657.495,1.0,
941,141.0,0.0,0.0,141.0,right,zc159,0.0,487670.766,1.0,
942,142.0,0.0,0.0,142.0,right,zc159,0.0,948.687,1.0,
943,143.0,0.0,0.0,143.0,right,zc159,0.0,516.831,1.0,
944,144.0,0.0,0.0,144.0,right,zc159,0.0,479.241,1.0,
945,145.0,0.0,0.0,145.0,right,zc159,0.0,439.542,1.0,
946,146.0,0.0,0.0,146.0,right,zc159,0.0,499.279,1.0,
947,147.0,0.0,0.0,147.0,right,zc159,0.0,616.165,1.0,
948,148.0,1.0,10.0,148.0,right,zc159,0.0,575.024,0.0,
949,149.0,1.0,15.0,149.0,right,zc159,0.0,575.877,0.0,
950,150.0,1.0,25.0,150.0,right,zc159,0.0,1057.202,0.0,
951,151.0,1.0,10.0,151.0,right,zc159,0.0,598.173,0.0,
952,152.0,1.0,60.0,152.0,right,zc159,1.0,1126.28,1.0,
953,153.0,1.0,10.0,153.0,right,zc159,0.0,796.356,0.0,
954,154.0,1.0,15.0,154.0,right,zc159,0.0,648163.913,0.0,
955,155.0,0.0,0.0,155.0,right,zc159,0.0,751.771,1.0,
956,156.0,0.0,0.0,156.0,right,zc159,0.0,404.347,1.0,
957,157.0,0.0,0.0,157.0,right,zc159,0.0,404.359,1.0,
958,158.0,0.0,0.0,158.0,right,zc159,0.0,387.90400000000005,1.0,
959,159.0,1.0,25.0,159.0,right,zc159,0.0,848.6120000000001,0.0,
960,160.0,1.0,15.0,160.0,right,zc159,0.0,759.043,0.0,
961,161.0,0.0,0.0,161.0,right,zc159,0.0,591.7099999999999,1.0,
962,162.0,1.0,60.0,162.0,right,zc159,1.0,1121.941,1.0,
963,163.0,0.0,0.0,163.0,right,zc159,0.0,642.23,1.0,
964,164.0,1.0,60.0,164.0,right,zc159,1.0,1108.767,1.0,
965,165.0,0.0,0.0,165.0,right,zc159,0.0,539.563,1.0,
966,166.0,1.0,10.0,166.0,right,zc159,0.0,600.677,0.0,
967,167.0,0.0,0.0,167.0,right,zc159,0.0,558.6659999999999,1.0,
968,168.0,0.0,0.0,168.0,right,zc159,0.0,639.771,1.0,
969,169.0,1.0,15.0,169.0,right,zc159,0.0,806.481,0.0,
970,170.0,0.0,0.0,170.0,right,zc159,0.0,707.813,1.0,
971,171.0,0.0,0.0,171.0,right,zc159,0.0,615.2109999999999,1.0,
972,172.0,0.0,0.0,172.0,right,zc159,0.0,492.154,1.0,
973,173.0,0.0,0.0,173.0,right,zc159,0.0,864.426,1.0,
974,174.0,1.0,60.0,174.0,right,zc159,1.0,1222.654,1.0,
975,175.0,0.0,0.0,175.0,right,zc159,0.0,1205.524,1.0,
976,176.0,0.0,0.0,176.0,right,zc159,0.0,208542.963,1.0,
977,177.0,1.0,15.0,177.0,right,zc159,0.0,465.037,0.0,
978,178.0,0.0,0.0,178.0,right,zc159,0.0,377.011,1.0,
979,179.0,1.0,25.0,179.0,right,zc159,0.0,249.728,0.0,
980,180.0,1.0,25.0,180.0,right,zc159,0.0,197.085,0.0,
981,181.0,1.0,15.0,181.0,right,zc159,0.0,255.042,0.0,
982,182.0,1.0,10.0,182.0,right,zc159,0.0,235.133,0.0,
983,183.0,0.0,0.0,183.0,right,zc159,0.0,322.087,1.0,
984,184.0,0.0,0.0,184.0,right,zc159,0.0,424.254,1.0,
985,185.0,1.0,15.0,185.0,right,zc159,0.0,342.27000000000004,0.0,
986,186.0,1.0,10.0,186.0,right,zc159,0.0,377.66,0.0,
987,187.0,1.0,60.0,187.0,right,zc159,0.0,385.24,0.0,
988,188.0,1.0,15.0,188.0,right,zc159,0.0,599.579,0.0,
989,189.0,0.0,0.0,189.0,right,zc159,0.0,719.491,1.0,
990,190.0,0.0,0.0,190.0,right,zc159,0.0,592.894,1.0,
991,191.0,1.0,10.0,191.0,right,zc159,0.0,659.299,0.0,
992,192.0,1.0,10.0,192.0,right,zc159,0.0,639.754,0.0,
993,193.0,1.0,15.0,193.0,right,zc159,0.0,39088.365000000005,0.0,
994,194.0,1.0,60.0,194.0,right,zc159,1.0,1354.247,1.0,
995,195.0,1.0,15.0,195.0,right,zc159,0.0,1265.404,0.0,
996,196.0,0.0,0.0,196.0,right,zc159,0.0,658.9300000000001,1.0,
997,197.0,1.0,60.0,197.0,right,zc159,1.0,1499.179,1.0,
998,198.0,1.0,15.0,198.0,right,zc159,0.0,779.559,0.0,
999,199.0,1.0,25.0,199.0,right,zc159,1.0,1094.999,1.0,
1000,0.0,1.0,60.0,0.0,left,gdj224,1.0,43149.104,1.0,
1001,1.0,1.0,10.0,1.0,left,gdj224,1.0,4629.434,1.0,
1002,2.0,1.0,10.0,2.0,left,gdj224,0.0,2470.853,0.0,
1003,3.0,1.0,15.0,3.0,left,gdj224,0.0,3778.959,0.0,
1004,4.0,0.0,0.0,4.0,left,gdj224,0.0,3286.276,1.0,
1005,5.0,1.0,60.0,5.0,left,gdj224,1.0,2091.028,1.0,
1006,6.0,0.0,0.0,6.0,left,gdj224,0.0,4823.179,1.0,
1007,7.0,1.0,60.0,7.0,left,gdj224,1.0,1389.211,1.0,
1008,8.0,1.0,25.0,8.0,left,gdj224,1.0,1009.982,1.0,
1009,9.0,1.0,15.0,9.0,left,gdj224,1.0,2463.518,1.0,
1010,10.0,0.0,0.0,10.0,left,gdj224,0.0,2557.583,1.0,
1011,11.0,0.0,0.0,11.0,left,gdj224,0.0,2612.203,1.0,
1012,12.0,0.0,0.0,12.0,left,gdj224,0.0,4971.639,1.0,
1013,13.0,0.0,0.0,13.0,left,gdj224,1.0,10753.042,0.0,
1014,14.0,1.0,15.0,14.0,left,gdj224,1.0,3132.143,1.0,
1015,15.0,1.0,10.0,15.0,left,gdj224,0.0,6795.557,0.0,
1016,16.0,0.0,0.0,16.0,left,gdj224,0.0,6532.898999999999,1.0,
1017,17.0,0.0,0.0,17.0,left,gdj224,0.0,4188.803,1.0,
1018,18.0,0.0,0.0,18.0,left,gdj224,1.0,9019.527999999998,0.0,
1019,19.0,0.0,0.0,19.0,left,gdj224,0.0,4113.929,1.0,
1020,20.0,1.0,25.0,20.0,left,gdj224,1.0,2386.4700000000003,1.0,
1021,21.0,0.0,0.0,21.0,left,gdj224,1.0,3604.441,0.0,
1022,22.0,0.0,0.0,22.0,left,gdj224,1.0,5601.472000000001,0.0,
1023,23.0,1.0,60.0,23.0,left,gdj224,1.0,998.772,1.0,
1024,24.0,1.0,60.0,24.0,left,gdj224,1.0,867.39,1.0,
1025,25.0,0.0,0.0,25.0,left,gdj224,0.0,5991.961,1.0,
1026,26.0,1.0,60.0,26.0,left,gdj224,1.0,1158.637,1.0,
1027,27.0,1.0,10.0,27.0,left,gdj224,1.0,5350.696,1.0,
1028,28.0,1.0,60.0,28.0,left,gdj224,1.0,847.174,1.0,
1029,29.0,0.0,0.0,29.0,left,gdj224,0.0,2584.521,1.0,
1030,30.0,1.0,15.0,30.0,left,gdj224,0.0,2202.791,0.0,
1031,31.0,1.0,25.0,31.0,left,gdj224,1.0,1647.045,1.0,
1032,32.0,0.0,0.0,32.0,left,gdj224,1.0,4167.056,0.0,
1033,33.0,0.0,0.0,33.0,left,gdj224,0.0,3540.745,1.0,
1034,34.0,0.0,0.0,34.0,left,gdj224,0.0,5071.027,1.0,
1035,35.0,1.0,60.0,35.0,left,gdj224,1.0,1266.157,1.0,
1036,36.0,1.0,25.0,36.0,left,gdj224,1.0,1267.651,1.0,
1037,37.0,1.0,25.0,37.0,left,gdj224,1.0,981.515,1.0,
1038,38.0,0.0,0.0,38.0,left,gdj224,0.0,3084.999,1.0,
1039,39.0,1.0,10.0,39.0,left,gdj224,1.0,2024.465,1.0,
1040,40.0,0.0,0.0,40.0,left,gdj224,0.0,3932.382,1.0,
1041,41.0,1.0,25.0,41.0,left,gdj224,1.0,1294.237,1.0,
1042,42.0,1.0,25.0,42.0,left,gdj224,1.0,1175.703,1.0,
1043,43.0,1.0,60.0,43.0,left,gdj224,1.0,2414.069,1.0,
1044,44.0,1.0,10.0,44.0,left,gdj224,1.0,4580.759999999999,1.0,
1045,45.0,1.0,25.0,45.0,left,gdj224,1.0,1706.041,1.0,
1046,46.0,1.0,25.0,46.0,left,gdj224,1.0,1024.309,1.0,
1047,47.0,0.0,0.0,47.0,left,gdj224,0.0,3059.316,1.0,
1048,48.0,0.0,0.0,48.0,left,gdj224,0.0,3518.935,1.0,
1049,49.0,0.0,0.0,49.0,left,gdj224,0.0,5070.582,1.0,
1050,50.0,1.0,10.0,50.0,left,gdj224,0.0,3010.192,0.0,
1051,51.0,1.0,25.0,51.0,left,gdj224,1.0,2262.377,1.0,
1052,52.0,0.0,0.0,52.0,left,gdj224,0.0,4637.316,1.0,
1053,53.0,0.0,0.0,53.0,left,gdj224,0.0,1912.379,1.0,
1054,54.0,1.0,25.0,54.0,left,gdj224,1.0,1231.193,1.0,
1055,55.0,0.0,0.0,55.0,left,gdj224,0.0,5703.562,1.0,
1056,56.0,0.0,0.0,56.0,left,gdj224,1.0,2579.84,0.0,
1057,57.0,0.0,0.0,57.0,left,gdj224,0.0,1708.323,1.0,
1058,58.0,0.0,0.0,58.0,left,gdj224,1.0,2761.345,0.0,
1059,59.0,1.0,25.0,59.0,left,gdj224,1.0,1793.512,1.0,
1060,60.0,1.0,10.0,60.0,left,gdj224,0.0,3376.579,0.0,
1061,61.0,1.0,15.0,61.0,left,gdj224,0.0,1973.854,0.0,
1062,62.0,1.0,15.0,62.0,left,gdj224,0.0,1869.841,0.0,
1063,63.0,1.0,15.0,63.0,left,gdj224,0.0,4048.664,0.0,
1064,64.0,0.0,0.0,64.0,left,gdj224,0.0,10273.457,1.0,
1065,65.0,1.0,10.0,65.0,left,gdj224,0.0,1627.335,0.0,
1066,66.0,0.0,0.0,66.0,left,gdj224,0.0,2224.128,1.0,
1067,67.0,0.0,0.0,67.0,left,gdj224,1.0,3716.03,0.0,
1068,68.0,1.0,60.0,68.0,left,gdj224,1.0,986.429,1.0,
1069,69.0,0.0,0.0,69.0,left,gdj224,0.0,4988.008,1.0,
1070,70.0,1.0,60.0,70.0,left,gdj224,1.0,1364.721,1.0,
1071,71.0,0.0,0.0,71.0,left,gdj224,0.0,4919.498,1.0,
1072,72.0,0.0,0.0,72.0,left,gdj224,0.0,2878.794,1.0,
1073,73.0,0.0,0.0,73.0,left,gdj224,0.0,4131.745,1.0,
1074,74.0,1.0,10.0,74.0,left,gdj224,1.0,3925.23,1.0,
1075,75.0,1.0,15.0,75.0,left,gdj224,1.0,1906.002,1.0,
1076,76.0,1.0,10.0,76.0,left,gdj224,0.0,2911.614,0.0,
1077,77.0,0.0,0.0,77.0,left,gdj224,1.0,2808.747,0.0,
1078,78.0,0.0,0.0,78.0,left,gdj224,0.0,2245.885,1.0,
1079,79.0,1.0,25.0,79.0,left,gdj224,1.0,1318.901,1.0,
1080,80.0,0.0,0.0,80.0,left,gdj224,0.0,3730.515,1.0,
1081,81.0,1.0,60.0,81.0,left,gdj224,1.0,1709.628,1.0,
1082,82.0,0.0,0.0,82.0,left,gdj224,0.0,3842.939,1.0,
1083,83.0,0.0,0.0,83.0,left,gdj224,0.0,4484.03,1.0,
1084,84.0,0.0,0.0,84.0,left,gdj224,1.0,2332.869,0.0,
1085,85.0,0.0,0.0,85.0,left,gdj224,0.0,3063.92,1.0,
1086,86.0,1.0,15.0,86.0,left,gdj224,1.0,3804.2,1.0,
1087,87.0,1.0,25.0,87.0,left,gdj224,1.0,3343.591,1.0,
1088,88.0,1.0,10.0,88.0,left,gdj224,0.0,2787.852,0.0,
1089,89.0,1.0,60.0,89.0,left,gdj224,1.0,1244.5159999999998,1.0,
1090,90.0,0.0,0.0,90.0,left,gdj224,0.0,3297.92,1.0,
1091,91.0,0.0,0.0,91.0,left,gdj224,1.0,2623.288,0.0,
1092,92.0,0.0,0.0,92.0,left,gdj224,0.0,2634.155,1.0,
1093,93.0,1.0,25.0,93.0,left,gdj224,1.0,1612.111,1.0,
1094,94.0,1.0,60.0,94.0,left,gdj224,1.0,904.943,1.0,
1095,95.0,1.0,10.0,95.0,left,gdj224,0.0,2604.838,0.0,
1096,96.0,0.0,0.0,96.0,left,gdj224,0.0,2620.43,1.0,
1097,97.0,0.0,0.0,97.0,left,gdj224,0.0,1978.131,1.0,
1098,98.0,0.0,0.0,98.0,left,gdj224,0.0,1701.029,1.0,
1099,99.0,0.0,0.0,99.0,left,gdj224,0.0,2265.5310000000004,1.0,
1100,100.0,0.0,0.0,100.0,left,gdj224,0.0,4459.036,1.0,
1101,101.0,0.0,0.0,101.0,left,gdj224,0.0,1806.367,1.0,
1102,102.0,1.0,25.0,102.0,left,gdj224,1.0,2818.913,1.0,
1103,103.0,0.0,0.0,103.0,left,gdj224,0.0,5111.456,1.0,
1104,104.0,1.0,10.0,104.0,left,gdj224,1.0,2265.918,1.0,
1105,105.0,1.0,15.0,105.0,left,gdj224,1.0,3309.274,1.0,
1106,106.0,1.0,15.0,106.0,left,gdj224,0.0,2115.488,0.0,
1107,107.0,0.0,0.0,107.0,left,gdj224,0.0,3707.182,1.0,
1108,108.0,1.0,15.0,108.0,left,gdj224,0.0,4213.865,0.0,
1109,109.0,0.0,0.0,109.0,left,gdj224,0.0,1736.8239999999998,1.0,
1110,110.0,0.0,0.0,110.0,left,gdj224,1.0,2337.063,0.0,
1111,111.0,1.0,10.0,111.0,left,gdj224,0.0,2735.05,0.0,
1112,112.0,0.0,0.0,112.0,left,gdj224,0.0,3949.051,1.0,
1113,113.0,0.0,0.0,113.0,left,gdj224,1.0,2745.392,0.0,
1114,114.0,0.0,0.0,114.0,left,gdj224,0.0,1695.7720000000002,1.0,
1115,115.0,0.0,0.0,115.0,left,gdj224,0.0,2554.4280000000003,1.0,
1116,116.0,0.0,0.0,116.0,left,gdj224,1.0,4942.839,0.0,
1117,117.0,1.0,25.0,117.0,left,gdj224,1.0,857.499,1.0,
1118,118.0,0.0,0.0,118.0,left,gdj224,0.0,3436.507,1.0,
1119,119.0,1.0,60.0,119.0,left,gdj224,1.0,1208.393,1.0,
1120,120.0,0.0,0.0,120.0,left,gdj224,0.0,5030.820000000001,1.0,
1121,121.0,0.0,0.0,121.0,left,gdj224,0.0,1832.058,1.0,
1122,122.0,1.0,25.0,122.0,left,gdj224,1.0,2551.261,1.0,
1123,123.0,0.0,0.0,123.0,left,gdj224,0.0,2550.134,1.0,
1124,124.0,1.0,60.0,124.0,left,gdj224,1.0,1111.379,1.0,
1125,125.0,0.0,0.0,125.0,left,gdj224,1.0,4273.21,0.0,
1126,126.0,1.0,10.0,126.0,left,gdj224,0.0,2654.9170000000004,0.0,
1127,127.0,1.0,15.0,127.0,left,gdj224,0.0,3688.199,0.0,
1128,128.0,0.0,0.0,128.0,left,gdj224,0.0,2533.1,1.0,
1129,129.0,0.0,0.0,129.0,left,gdj224,0.0,2276.35,1.0,
1130,130.0,0.0,0.0,130.0,left,gdj224,1.0,2825.028,0.0,
1131,131.0,1.0,25.0,131.0,left,gdj224,1.0,1461.159,1.0,
1132,132.0,1.0,60.0,132.0,left,gdj224,1.0,961.217,1.0,
1133,133.0,1.0,25.0,133.0,left,gdj224,1.0,1112.517,1.0,
1134,134.0,0.0,0.0,134.0,left,gdj224,0.0,2673.337,1.0,
1135,135.0,1.0,60.0,135.0,left,gdj224,1.0,1122.198,1.0,
1136,136.0,0.0,0.0,136.0,left,gdj224,0.0,4573.179,1.0,
1137,137.0,1.0,10.0,137.0,left,gdj224,0.0,2174.689,0.0,
1138,138.0,0.0,0.0,138.0,left,gdj224,0.0,3047.348,1.0,
1139,139.0,1.0,15.0,139.0,left,gdj224,0.0,1081.329,0.0,
1140,140.0,0.0,0.0,140.0,left,gdj224,0.0,2643.204,1.0,
1141,141.0,0.0,0.0,141.0,left,gdj224,1.0,2857.634,0.0,
1142,142.0,0.0,0.0,142.0,left,gdj224,0.0,2885.42,1.0,
1143,143.0,0.0,0.0,143.0,left,gdj224,0.0,2291.673,1.0,
1144,144.0,0.0,0.0,144.0,left,gdj224,0.0,3044.278,1.0,
1145,145.0,0.0,0.0,145.0,left,gdj224,1.0,6179.449,0.0,
1146,146.0,0.0,0.0,146.0,left,gdj224,1.0,2201.048,0.0,
1147,147.0,0.0,0.0,147.0,left,gdj224,0.0,3641.753,1.0,
1148,148.0,1.0,10.0,148.0,left,gdj224,0.0,3355.82,0.0,
1149,149.0,1.0,15.0,149.0,left,gdj224,1.0,2649.617,1.0,
1150,150.0,1.0,25.0,150.0,left,gdj224,1.0,1267.663,1.0,
1151,151.0,1.0,10.0,151.0,left,gdj224,0.0,3563.46,0.0,
1152,152.0,1.0,60.0,152.0,left,gdj224,1.0,1181.77,1.0,
1153,153.0,1.0,10.0,153.0,left,gdj224,1.0,4282.545,1.0,
1154,154.0,1.0,15.0,154.0,left,gdj224,1.0,2264.493,1.0,
1155,155.0,0.0,0.0,155.0,left,gdj224,0.0,64485.405,1.0,
1156,156.0,0.0,0.0,156.0,left,gdj224,0.0,2989.262,1.0,
1157,157.0,0.0,0.0,157.0,left,gdj224,0.0,822.0079999999999,1.0,
1158,158.0,0.0,0.0,158.0,left,gdj224,0.0,83548.96399999999,1.0,
1159,159.0,1.0,25.0,159.0,left,gdj224,1.0,2352.051,1.0,
1160,160.0,1.0,15.0,160.0,left,gdj224,1.0,1198.622,1.0,
1161,161.0,0.0,0.0,161.0,left,gdj224,0.0,1285.481,1.0,
1162,162.0,1.0,60.0,162.0,left,gdj224,1.0,1118.855,1.0,
1163,163.0,0.0,0.0,163.0,left,gdj224,0.0,1076.362,1.0,
1164,164.0,1.0,60.0,164.0,left,gdj224,1.0,789.845,1.0,
1165,165.0,0.0,0.0,165.0,left,gdj224,0.0,1253.181,1.0,
1166,166.0,1.0,10.0,166.0,left,gdj224,0.0,1329.1409999999998,0.0,
1167,167.0,0.0,0.0,167.0,left,gdj224,0.0,957.223,1.0,
1168,168.0,0.0,0.0,168.0,left,gdj224,0.0,2090.991,1.0,
1169,169.0,1.0,15.0,169.0,left,gdj224,1.0,1486.47,1.0,
1170,170.0,0.0,0.0,170.0,left,gdj224,0.0,1074.523,1.0,
1171,171.0,0.0,0.0,171.0,left,gdj224,0.0,784.963,1.0,
1172,172.0,0.0,0.0,172.0,left,gdj224,0.0,1090.47,1.0,
1173,173.0,0.0,0.0,173.0,left,gdj224,0.0,1293.173,1.0,
1174,174.0,1.0,60.0,174.0,left,gdj224,1.0,1276.427,1.0,
1175,175.0,0.0,0.0,175.0,left,gdj224,0.0,1267.228,1.0,
1176,176.0,0.0,0.0,176.0,left,gdj224,0.0,1249.006,1.0,
1177,177.0,1.0,15.0,177.0,left,gdj224,0.0,1040.0069999999998,0.0,
1178,178.0,0.0,0.0,178.0,left,gdj224,0.0,1053.116,1.0,
1179,179.0,1.0,25.0,179.0,left,gdj224,1.0,1025.097,1.0,
1180,180.0,1.0,25.0,180.0,left,gdj224,0.0,1240.25,0.0,
1181,181.0,1.0,15.0,181.0,left,gdj224,0.0,993.378,0.0,
1182,182.0,1.0,10.0,182.0,left,gdj224,0.0,1068.259,0.0,
1183,183.0,0.0,0.0,183.0,left,gdj224,0.0,4058.021,1.0,
1184,184.0,0.0,0.0,184.0,left,gdj224,0.0,1018.551,1.0,
1185,185.0,1.0,15.0,185.0,left,gdj224,1.0,1515.159,1.0,
1186,186.0,1.0,10.0,186.0,left,gdj224,1.0,1092.708,1.0,
1187,187.0,1.0,60.0,187.0,left,gdj224,1.0,1166.358,1.0,
1188,188.0,1.0,15.0,188.0,left,gdj224,1.0,733.432,1.0,
1189,189.0,0.0,0.0,189.0,left,gdj224,0.0,2165.5220000000004,1.0,
1190,190.0,0.0,0.0,190.0,left,gdj224,0.0,1162.096,1.0,
1191,191.0,1.0,10.0,191.0,left,gdj224,0.0,874.663,0.0,
1192,192.0,1.0,10.0,192.0,left,gdj224,0.0,1146.809,0.0,
1193,193.0,1.0,15.0,193.0,left,gdj224,1.0,1596.68,1.0,
1194,194.0,1.0,60.0,194.0,left,gdj224,1.0,786.5269999999999,1.0,
1195,195.0,1.0,15.0,195.0,left,gdj224,0.0,1556.132,0.0,
1196,196.0,0.0,0.0,196.0,left,gdj224,1.0,1177.706,0.0,
1197,197.0,1.0,60.0,197.0,left,gdj224,1.0,678.06,1.0,
1198,198.0,1.0,15.0,198.0,left,gdj224,1.0,1063.746,1.0,
1199,199.0,1.0,25.0,199.0,left,gdj224,1.0,780.0709999999999,1.0,
1200,0.0,1.0,60.0,0.0,left,emf484,1.0,30153.366,1.0,
1201,1.0,1.0,10.0,1.0,left,emf484,1.0,6202.75,1.0,
1202,2.0,1.0,10.0,2.0,left,emf484,0.0,6473.337,0.0,
1203,3.0,1.0,15.0,3.0,left,emf484,0.0,11003.88,0.0,
1204,4.0,0.0,0.0,4.0,left,emf484,0.0,10007.036,1.0,
1205,5.0,1.0,60.0,5.0,left,emf484,1.0,3103.984,1.0,
1206,6.0,0.0,0.0,6.0,left,emf484,0.0,6099.249000000001,1.0,
1207,7.0,1.0,60.0,7.0,left,emf484,1.0,2880.646,1.0,
1208,8.0,1.0,25.0,8.0,left,emf484,1.0,3764.611,1.0,
1209,9.0,1.0,15.0,9.0,left,emf484,1.0,7554.855,1.0,
1210,10.0,0.0,0.0,10.0,left,emf484,0.0,7055.557000000001,1.0,
1211,11.0,0.0,0.0,11.0,left,emf484,0.0,11647.009,1.0,
1212,12.0,0.0,0.0,12.0,left,emf484,0.0,11775.993,1.0,
1213,13.0,0.0,0.0,13.0,left,emf484,0.0,7270.257,1.0,
1214,14.0,1.0,15.0,14.0,left,emf484,1.0,3052.953,1.0,
1215,15.0,1.0,10.0,15.0,left,emf484,1.0,13525.344,1.0,
1216,16.0,0.0,0.0,16.0,left,emf484,0.0,8684.668,1.0,
1217,17.0,0.0,0.0,17.0,left,emf484,0.0,7647.557,1.0,
1218,18.0,0.0,0.0,18.0,left,emf484,0.0,4223.753000000001,1.0,
1219,19.0,0.0,0.0,19.0,left,emf484,0.0,5395.178,1.0,
1220,20.0,1.0,25.0,20.0,left,emf484,1.0,3072.751,1.0,
1221,21.0,0.0,0.0,21.0,left,emf484,1.0,2891.799,0.0,
1222,22.0,0.0,0.0,22.0,left,emf484,0.0,2673.226,1.0,
1223,23.0,1.0,60.0,23.0,left,emf484,1.0,1883.394,1.0,
1224,24.0,1.0,60.0,24.0,left,emf484,1.0,2563.715,1.0,
1225,25.0,0.0,0.0,25.0,left,emf484,0.0,6816.6900000000005,1.0,
1226,26.0,1.0,60.0,26.0,left,emf484,1.0,2049.01,1.0,
1227,27.0,1.0,10.0,27.0,left,emf484,0.0,2411.701,0.0,
1228,28.0,1.0,60.0,28.0,left,emf484,1.0,1702.22,1.0,
1229,29.0,0.0,0.0,29.0,left,emf484,0.0,2020.3920000000005,1.0,
1230,30.0,1.0,15.0,30.0,left,emf484,0.0,2070.701,0.0,
1231,31.0,1.0,25.0,31.0,left,emf484,1.0,6481.039,1.0,
1232,32.0,0.0,0.0,32.0,left,emf484,0.0,7046.198,1.0,
1233,33.0,0.0,0.0,33.0,left,emf484,1.0,19892.009,0.0,
1234,34.0,0.0,0.0,34.0,left,emf484,0.0,3018.731,1.0,
1235,35.0,1.0,60.0,35.0,left,emf484,1.0,3303.67,1.0,
1236,36.0,1.0,25.0,36.0,left,emf484,1.0,4584.768999999999,1.0,
1237,37.0,1.0,25.0,37.0,left,emf484,1.0,6437.209,1.0,
1238,38.0,0.0,0.0,38.0,left,emf484,0.0,3799.202,1.0,
1239,39.0,1.0,10.0,39.0,left,emf484,1.0,6032.034000000001,1.0,
1240,40.0,0.0,0.0,40.0,left,emf484,0.0,4745.173000000001,1.0,
1241,41.0,1.0,25.0,41.0,left,emf484,1.0,2434.862,1.0,
1242,42.0,1.0,25.0,42.0,left,emf484,1.0,2408.981,1.0,
1243,43.0,1.0,60.0,43.0,left,emf484,1.0,2100.098,1.0,
1244,44.0,1.0,10.0,44.0,left,emf484,1.0,47988.405,1.0,
1245,45.0,1.0,25.0,45.0,left,emf484,1.0,2097.395,1.0,
1246,46.0,1.0,25.0,46.0,left,emf484,1.0,1546.618,1.0,
1247,47.0,0.0,0.0,47.0,left,emf484,0.0,2347.841,1.0,
1248,48.0,0.0,0.0,48.0,left,emf484,0.0,3541.106,1.0,
1249,49.0,0.0,0.0,49.0,left,emf484,1.0,22664.994,0.0,
1250,50.0,1.0,10.0,50.0,left,emf484,1.0,3157.968,1.0,
1251,51.0,1.0,25.0,51.0,left,emf484,1.0,2148.205,1.0,
1252,52.0,0.0,0.0,52.0,left,emf484,0.0,1650.265,1.0,
1253,53.0,0.0,0.0,53.0,left,emf484,0.0,1638.198,1.0,
1254,54.0,1.0,25.0,54.0,left,emf484,1.0,1451.895,1.0,
1255,55.0,0.0,0.0,55.0,left,emf484,1.0,70356.182,0.0,
1256,56.0,0.0,0.0,56.0,left,emf484,1.0,1640.05,0.0,
1257,57.0,0.0,0.0,57.0,left,emf484,0.0,1532.507,1.0,
1258,58.0,0.0,0.0,58.0,left,emf484,1.0,4213.779,0.0,
1259,59.0,1.0,25.0,59.0,left,emf484,1.0,1533.572,1.0,
1260,60.0,1.0,10.0,60.0,left,emf484,0.0,1915.242,0.0,
1261,61.0,1.0,15.0,61.0,left,emf484,0.0,1702.602,0.0,
1262,62.0,1.0,15.0,62.0,left,emf484,1.0,10571.154,1.0,
1263,63.0,1.0,15.0,63.0,left,emf484,1.0,2366.172,1.0,
1264,64.0,0.0,0.0,64.0,left,emf484,0.0,5590.345,1.0,
1265,65.0,1.0,10.0,65.0,left,emf484,0.0,2357.239,0.0,
1266,66.0,0.0,0.0,66.0,left,emf484,0.0,3091.8920000000003,1.0,
1267,67.0,0.0,0.0,67.0,left,emf484,0.0,2747.125,1.0,
1268,68.0,1.0,60.0,68.0,left,emf484,1.0,2144.519,1.0,
1269,69.0,0.0,0.0,69.0,left,emf484,1.0,6228.277,0.0,
1270,70.0,1.0,60.0,70.0,left,emf484,1.0,2588.724,1.0,
1271,71.0,0.0,0.0,71.0,left,emf484,0.0,3005.952,1.0,
1272,72.0,0.0,0.0,72.0,left,emf484,0.0,2058.438,1.0,
1273,73.0,0.0,0.0,73.0,left,emf484,0.0,3730.697,1.0,
1274,74.0,1.0,10.0,74.0,left,emf484,1.0,6473.437,1.0,
1275,75.0,1.0,15.0,75.0,left,emf484,1.0,2973.373,1.0,
1276,76.0,1.0,10.0,76.0,left,emf484,1.0,19354.183,1.0,
1277,77.0,0.0,0.0,77.0,left,emf484,0.0,8095.013,1.0,
1278,78.0,0.0,0.0,78.0,left,emf484,0.0,6277.3060000000005,1.0,
1279,79.0,1.0,25.0,79.0,left,emf484,1.0,1951.084,1.0,
1280,80.0,0.0,0.0,80.0,left,emf484,1.0,1751.749,0.0,
1281,81.0,1.0,60.0,81.0,left,emf484,1.0,998.988,1.0,
1282,82.0,0.0,0.0,82.0,left,emf484,0.0,1912.308,1.0,
1283,83.0,0.0,0.0,83.0,left,emf484,0.0,1023.223,1.0,
1284,84.0,0.0,0.0,84.0,left,emf484,1.0,21870.984,0.0,
1285,85.0,0.0,0.0,85.0,left,emf484,1.0,1714.997,0.0,
1286,86.0,1.0,15.0,86.0,left,emf484,1.0,1125.424,1.0,
1287,87.0,1.0,25.0,87.0,left,emf484,1.0,6143.08,1.0,
1288,88.0,1.0,10.0,88.0,left,emf484,1.0,1089.079,1.0,
1289,89.0,1.0,60.0,89.0,left,emf484,1.0,1117.0500000000002,1.0,
1290,90.0,0.0,0.0,90.0,left,emf484,0.0,9101.669,1.0,
1291,91.0,0.0,0.0,91.0,left,emf484,0.0,1632.4540000000002,1.0,
1292,92.0,0.0,0.0,92.0,left,emf484,0.0,1084.829,1.0,
1293,93.0,1.0,25.0,93.0,left,emf484,1.0,3231.296,1.0,
1294,94.0,1.0,60.0,94.0,left,emf484,1.0,976.43,1.0,
1295,95.0,1.0,10.0,95.0,left,emf484,1.0,92.547,1.0,
1296,96.0,0.0,0.0,96.0,left,emf484,0.0,58.317,1.0,
1297,97.0,0.0,0.0,97.0,left,emf484,0.0,1322.715,1.0,
1298,98.0,0.0,0.0,98.0,left,emf484,0.0,3587.935,1.0,
1299,99.0,0.0,0.0,99.0,left,emf484,1.0,2526.124,0.0,
1300,100.0,0.0,0.0,100.0,left,emf484,0.0,2111.1420000000003,1.0,
1301,101.0,0.0,0.0,101.0,left,emf484,1.0,1887.945,0.0,
1302,102.0,1.0,25.0,102.0,left,emf484,1.0,2914.857,1.0,
1303,103.0,0.0,0.0,103.0,left,emf484,1.0,51.136,0.0,
1304,104.0,1.0,10.0,104.0,left,emf484,0.0,1825.938,0.0,
1305,105.0,1.0,15.0,105.0,left,emf484,1.0,1536.303,1.0,
1306,106.0,1.0,15.0,106.0,left,emf484,1.0,4518.777,1.0,
1307,107.0,0.0,0.0,107.0,left,emf484,1.0,6574.996999999999,0.0,
1308,108.0,1.0,15.0,108.0,left,emf484,1.0,1418.337,1.0,
1309,109.0,0.0,0.0,109.0,left,emf484,1.0,1761.5700000000002,0.0,
1310,110.0,0.0,0.0,110.0,left,emf484,1.0,3043.875,0.0,
1311,111.0,1.0,10.0,111.0,left,emf484,1.0,1293.961,1.0,
1312,112.0,0.0,0.0,112.0,left,emf484,0.0,2207.573,1.0,
1313,113.0,0.0,0.0,113.0,left,emf484,1.0,7347.138,0.0,
1314,114.0,0.0,0.0,114.0,left,emf484,1.0,5297.496,0.0,
1315,115.0,0.0,0.0,115.0,left,emf484,1.0,4542.584,0.0,
1316,116.0,0.0,0.0,116.0,left,emf484,0.0,2838.429,1.0,
1317,117.0,1.0,25.0,117.0,left,emf484,1.0,1416.956,1.0,
1318,118.0,0.0,0.0,118.0,left,emf484,0.0,1165.884,1.0,
1319,119.0,1.0,60.0,119.0,left,emf484,1.0,919.199,1.0,
1320,120.0,0.0,0.0,120.0,left,emf484,0.0,1532.165,1.0,
1321,121.0,0.0,0.0,121.0,left,emf484,0.0,1777.239,1.0,
1322,122.0,1.0,25.0,122.0,left,emf484,1.0,6019.955999999999,1.0,
1323,123.0,0.0,0.0,123.0,left,emf484,0.0,1642.706,1.0,
1324,124.0,1.0,60.0,124.0,left,emf484,1.0,2610.919,1.0,
1325,125.0,0.0,0.0,125.0,left,emf484,1.0,1278.4679999999998,0.0,
1326,126.0,1.0,10.0,126.0,left,emf484,1.0,4469.837,1.0,
1327,127.0,1.0,15.0,127.0,left,emf484,1.0,2557.781,1.0,
1328,128.0,0.0,0.0,128.0,left,emf484,1.0,2063.075,0.0,
1329,129.0,0.0,0.0,129.0,left,emf484,0.0,2672.345,1.0,
1330,130.0,0.0,0.0,130.0,left,emf484,0.0,1524.176,1.0,
1331,131.0,1.0,25.0,131.0,left,emf484,1.0,2923.964,1.0,
1332,132.0,1.0,60.0,132.0,left,emf484,1.0,1411.114,1.0,
1333,133.0,1.0,25.0,133.0,left,emf484,1.0,1015.809,1.0,
1334,134.0,0.0,0.0,134.0,left,emf484,0.0,1599.601,1.0,
1335,135.0,1.0,60.0,135.0,left,emf484,1.0,1995.285,1.0,
1336,136.0,0.0,0.0,136.0,left,emf484,0.0,2596.949,1.0,
1337,137.0,1.0,10.0,137.0,left,emf484,0.0,1150.053,0.0,
1338,138.0,0.0,0.0,138.0,left,emf484,0.0,1134.064,1.0,
1339,139.0,1.0,15.0,139.0,left,emf484,0.0,1271.53,0.0,
1340,140.0,0.0,0.0,140.0,left,emf484,0.0,1144.232,1.0,
1341,141.0,0.0,0.0,141.0,left,emf484,0.0,683.751,1.0,
1342,142.0,0.0,0.0,142.0,left,emf484,0.0,889.12,1.0,
1343,143.0,0.0,0.0,143.0,left,emf484,0.0,900.1519999999999,1.0,
1344,144.0,0.0,0.0,144.0,left,emf484,0.0,704.586,1.0,
1345,145.0,0.0,0.0,145.0,left,emf484,1.0,1414.035,0.0,
1346,146.0,0.0,0.0,146.0,left,emf484,0.0,2733.623,1.0,
1347,147.0,0.0,0.0,147.0,left,emf484,0.0,1346.123,1.0,
1348,148.0,1.0,10.0,148.0,left,emf484,0.0,1008.945,0.0,
1349,149.0,1.0,15.0,149.0,left,emf484,1.0,3496.3700000000003,1.0,
1350,150.0,1.0,25.0,150.0,left,emf484,1.0,1073.8719999999998,1.0,
1351,151.0,1.0,10.0,151.0,left,emf484,1.0,1582.748,1.0,
1352,152.0,1.0,60.0,152.0,left,emf484,1.0,930.036,1.0,
1353,153.0,1.0,10.0,153.0,left,emf484,0.0,2261.67,0.0,
1354,154.0,1.0,15.0,154.0,left,emf484,1.0,6154.542,1.0,
1355,155.0,0.0,0.0,155.0,left,emf484,1.0,1944.971,0.0,
1356,156.0,0.0,0.0,156.0,left,emf484,1.0,5178.005,0.0,
1357,157.0,0.0,0.0,157.0,left,emf484,0.0,3597.02,1.0,
1358,158.0,0.0,0.0,158.0,left,emf484,1.0,2084.67,0.0,
1359,159.0,1.0,25.0,159.0,left,emf484,1.0,1724.896,1.0,
1360,160.0,1.0,15.0,160.0,left,emf484,1.0,4196.741,1.0,
1361,161.0,0.0,0.0,161.0,left,emf484,1.0,5278.592,0.0,
1362,162.0,1.0,60.0,162.0,left,emf484,1.0,1067.761,1.0,
1363,163.0,0.0,0.0,163.0,left,emf484,1.0,11170.461,0.0,
1364,164.0,1.0,60.0,164.0,left,emf484,1.0,1203.016,1.0,
1365,165.0,0.0,0.0,165.0,left,emf484,1.0,7230.031999999999,0.0,
1366,166.0,1.0,10.0,166.0,left,emf484,1.0,10.536,1.0,
1367,167.0,0.0,0.0,167.0,left,emf484,1.0,57.93,0.0,
1368,168.0,0.0,0.0,168.0,left,emf484,1.0,8.562,0.0,
1369,169.0,1.0,15.0,169.0,left,emf484,1.0,7.524999999999999,1.0,
1370,170.0,0.0,0.0,170.0,left,emf484,0.0,21.683,1.0,
1371,171.0,0.0,0.0,171.0,left,emf484,0.0,8.497,1.0,
1372,172.0,0.0,0.0,172.0,left,emf484,1.0,63.266000000000005,0.0,
1373,173.0,0.0,0.0,173.0,left,emf484,0.0,2958.863,1.0,
1374,174.0,1.0,60.0,174.0,left,emf484,1.0,1421.888,1.0,
1375,175.0,0.0,0.0,175.0,left,emf484,0.0,1603.053,1.0,
1376,176.0,0.0,0.0,176.0,left,emf484,1.0,1446.811,0.0,
1377,177.0,1.0,15.0,177.0,left,emf484,0.0,1372.181,0.0,
1378,178.0,0.0,0.0,178.0,left,emf484,0.0,2421.602,1.0,
1379,179.0,1.0,25.0,179.0,left,emf484,1.0,2230.845,1.0,
1380,180.0,1.0,25.0,180.0,left,emf484,1.0,2757.275,1.0,
1381,181.0,1.0,15.0,181.0,left,emf484,1.0,1440.811,1.0,
1382,182.0,1.0,10.0,182.0,left,emf484,0.0,2171.744,0.0,
1383,183.0,0.0,0.0,183.0,left,emf484,0.0,1683.086,1.0,
1384,184.0,0.0,0.0,184.0,left,emf484,0.0,2339.064,1.0,
1385,185.0,1.0,15.0,185.0,left,emf484,0.0,976.038,0.0,
1386,186.0,1.0,10.0,186.0,left,emf484,0.0,765.675,0.0,
1387,187.0,1.0,60.0,187.0,left,emf484,1.0,1604.992,1.0,
1388,188.0,1.0,15.0,188.0,left,emf484,0.0,3798.01,0.0,
1389,189.0,0.0,0.0,189.0,left,emf484,1.0,1389.828,0.0,
1390,190.0,0.0,0.0,190.0,left,emf484,0.0,1972.014,1.0,
1391,191.0,1.0,10.0,191.0,left,emf484,0.0,1469.137,0.0,
1392,192.0,1.0,10.0,192.0,left,emf484,0.0,1468.867,0.0,
1393,193.0,1.0,15.0,193.0,left,emf484,0.0,1939.832,0.0,
1394,194.0,1.0,60.0,194.0,left,emf484,1.0,1400.039,1.0,
1395,195.0,1.0,15.0,195.0,left,emf484,0.0,1342.957,0.0,
1396,196.0,0.0,0.0,196.0,left,emf484,0.0,1307.096,1.0,
1397,197.0,1.0,60.0,197.0,left,emf484,1.0,1082.323,1.0,
1398,198.0,1.0,15.0,198.0,left,emf484,0.0,1469.152,0.0,
1399,199.0,1.0,25.0,199.0,left,emf484,1.0,1320.733,1.0,
1400,0.0,1.0,60.0,0.0,left,ack518,1.0,38930.914,1.0,
1401,1.0,1.0,10.0,1.0,left,ack518,1.0,2933.702,1.0,
1402,2.0,1.0,10.0,2.0,left,ack518,0.0,14384.897,0.0,
1403,3.0,1.0,15.0,3.0,left,ack518,0.0,1537.716,0.0,
1404,4.0,0.0,0.0,4.0,left,ack518,0.0,2989.063,1.0,
1405,5.0,1.0,60.0,5.0,left,ack518,1.0,1609.262,1.0,
1406,6.0,0.0,0.0,6.0,left,ack518,0.0,6434.55,1.0,
1407,7.0,1.0,60.0,7.0,left,ack518,1.0,1281.733,1.0,
1408,8.0,1.0,25.0,8.0,left,ack518,1.0,1209.46,1.0,
1409,9.0,1.0,15.0,9.0,left,ack518,1.0,1921.529,1.0,
1410,10.0,0.0,0.0,10.0,left,ack518,0.0,1876.819,1.0,
1411,11.0,0.0,0.0,11.0,left,ack518,0.0,1195.952,1.0,
1412,12.0,0.0,0.0,12.0,left,ack518,0.0,1253.985,1.0,
1413,13.0,0.0,0.0,13.0,left,ack518,0.0,1085.2710000000002,1.0,
1414,14.0,1.0,15.0,14.0,left,ack518,0.0,984.141,0.0,
1415,15.0,1.0,10.0,15.0,left,ack518,0.0,908.208,0.0,
1416,16.0,0.0,0.0,16.0,left,ack518,0.0,4924.686000000001,1.0,
1417,17.0,0.0,0.0,17.0,left,ack518,0.0,1817.418,1.0,
1418,18.0,0.0,0.0,18.0,left,ack518,0.0,1434.84,1.0,
1419,19.0,0.0,0.0,19.0,left,ack518,0.0,1148.303,1.0,
1420,20.0,1.0,25.0,20.0,left,ack518,1.0,1661.296,1.0,
1421,21.0,0.0,0.0,21.0,left,ack518,0.0,1932.959,1.0,
1422,22.0,0.0,0.0,22.0,left,ack518,0.0,990.167,1.0,
1423,23.0,1.0,60.0,23.0,left,ack518,1.0,1305.93,1.0,
1424,24.0,1.0,60.0,24.0,left,ack518,1.0,855.202,1.0,
1425,25.0,0.0,0.0,25.0,left,ack518,0.0,1328.119,1.0,
1426,26.0,1.0,60.0,26.0,left,ack518,1.0,1164.217,1.0,
1427,27.0,1.0,10.0,27.0,left,ack518,0.0,1369.436,0.0,
1428,28.0,1.0,60.0,28.0,left,ack518,1.0,1287.931,1.0,
1429,29.0,0.0,0.0,29.0,left,ack518,0.0,1464.424,1.0,
1430,30.0,1.0,15.0,30.0,left,ack518,0.0,951.363,0.0,
1431,31.0,1.0,25.0,31.0,left,ack518,0.0,825.087,0.0,
1432,32.0,0.0,0.0,32.0,left,ack518,0.0,901.22,1.0,
1433,33.0,0.0,0.0,33.0,left,ack518,0.0,909.905,1.0,
1434,34.0,0.0,0.0,34.0,left,ack518,0.0,819.7990000000001,1.0,
1435,35.0,1.0,60.0,35.0,left,ack518,1.0,1391.972,1.0,
1436,36.0,1.0,25.0,36.0,left,ack518,1.0,2207.033,1.0,
1437,37.0,1.0,25.0,37.0,left,ack518,1.0,1101.361,1.0,
1438,38.0,0.0,0.0,38.0,left,ack518,0.0,1278.227,1.0,
1439,39.0,1.0,10.0,39.0,left,ack518,0.0,990.194,0.0,
1440,40.0,0.0,0.0,40.0,left,ack518,0.0,846.071,1.0,
1441,41.0,1.0,25.0,41.0,left,ack518,1.0,1688.889,1.0,
1442,42.0,1.0,25.0,42.0,left,ack518,1.0,1049.942,1.0,
1443,43.0,1.0,60.0,43.0,left,ack518,1.0,805.4839999999999,1.0,
1444,44.0,1.0,10.0,44.0,left,ack518,0.0,1769.614,0.0,
1445,45.0,1.0,25.0,45.0,left,ack518,0.0,2124.689,0.0,
1446,46.0,1.0,25.0,46.0,left,ack518,1.0,1549.923,1.0,
1447,47.0,0.0,0.0,47.0,left,ack518,0.0,1112.256,1.0,
1448,48.0,0.0,0.0,48.0,left,ack518,0.0,848.82,1.0,
1449,49.0,0.0,0.0,49.0,left,ack518,0.0,1083.459,1.0,
1450,50.0,1.0,10.0,50.0,left,ack518,0.0,838.171,0.0,
1451,51.0,1.0,25.0,51.0,left,ack518,1.0,1717.553,1.0,
1452,52.0,0.0,0.0,52.0,left,ack518,0.0,1267.603,1.0,
1453,53.0,0.0,0.0,53.0,left,ack518,0.0,1641.28,1.0,
1454,54.0,1.0,25.0,54.0,left,ack518,1.0,1758.7710000000002,1.0,
1455,55.0,0.0,0.0,55.0,left,ack518,0.0,1243.2240000000002,1.0,
1456,56.0,0.0,0.0,56.0,left,ack518,0.0,773.091,1.0,
1457,57.0,0.0,0.0,57.0,left,ack518,0.0,788.554,1.0,
1458,58.0,0.0,0.0,58.0,left,ack518,0.0,1227.501,1.0,
1459,59.0,1.0,25.0,59.0,left,ack518,0.0,897.633,0.0,
1460,60.0,1.0,10.0,60.0,left,ack518,0.0,852.419,0.0,
1461,61.0,1.0,15.0,61.0,left,ack518,0.0,893.673,0.0,
1462,62.0,1.0,15.0,62.0,left,ack518,0.0,696.7379999999999,0.0,
1463,63.0,1.0,15.0,63.0,left,ack518,0.0,988.301,0.0,
1464,64.0,0.0,0.0,64.0,left,ack518,0.0,916.08,1.0,
1465,65.0,1.0,10.0,65.0,left,ack518,0.0,786.8589999999999,0.0,
1466,66.0,0.0,0.0,66.0,left,ack518,0.0,705.927,1.0,
1467,67.0,0.0,0.0,67.0,left,ack518,0.0,777.982,1.0,
1468,68.0,1.0,60.0,68.0,left,ack518,1.0,1370.556,1.0,
1469,69.0,0.0,0.0,69.0,left,ack518,0.0,1206.622,1.0,
1470,70.0,1.0,60.0,70.0,left,ack518,1.0,1085.5649999999998,1.0,
1471,71.0,0.0,0.0,71.0,left,ack518,0.0,1235.476,1.0,
1472,72.0,0.0,0.0,72.0,left,ack518,0.0,1000.712,1.0,
1473,73.0,0.0,0.0,73.0,left,ack518,0.0,782.2099999999999,1.0,
1474,74.0,1.0,10.0,74.0,left,ack518,0.0,816.6750000000001,0.0,
1475,75.0,1.0,15.0,75.0,left,ack518,0.0,2311.203,0.0,
1476,76.0,1.0,10.0,76.0,left,ack518,0.0,792.273,0.0,
1477,77.0,0.0,0.0,77.0,left,ack518,0.0,796.341,1.0,
1478,78.0,0.0,0.0,78.0,left,ack518,0.0,778.507,1.0,
1479,79.0,1.0,25.0,79.0,left,ack518,0.0,743.476,0.0,
1480,80.0,0.0,0.0,80.0,left,ack518,0.0,1289.653,1.0,
1481,81.0,1.0,60.0,81.0,left,ack518,0.0,834.426,0.0,
1482,82.0,0.0,0.0,82.0,left,ack518,1.0,123.817,0.0,
1483,83.0,0.0,0.0,83.0,left,ack518,0.0,1048.238,1.0,
1484,84.0,0.0,0.0,84.0,left,ack518,0.0,868.026,1.0,
1485,85.0,0.0,0.0,85.0,left,ack518,0.0,698.868,1.0,
1486,86.0,1.0,15.0,86.0,left,ack518,0.0,1244.303,0.0,
1487,87.0,1.0,25.0,87.0,left,ack518,0.0,1152.517,0.0,
1488,88.0,1.0,10.0,88.0,left,ack518,0.0,927.422,0.0,
1489,89.0,1.0,60.0,89.0,left,ack518,1.0,1143.2230000000002,1.0,
1490,90.0,0.0,0.0,90.0,left,ack518,0.0,1683.862,1.0,
1491,91.0,0.0,0.0,91.0,left,ack518,0.0,973.005,1.0,
1492,92.0,0.0,0.0,92.0,left,ack518,0.0,981.928,1.0,
1493,93.0,1.0,25.0,93.0,left,ack518,0.0,1580.705,0.0,
1494,94.0,1.0,60.0,94.0,left,ack518,1.0,1633.197,1.0,
1495,95.0,1.0,10.0,95.0,left,ack518,0.0,1404.396,0.0,
1496,96.0,0.0,0.0,96.0,left,ack518,0.0,767.63,1.0,
1497,97.0,0.0,0.0,97.0,left,ack518,0.0,621.336,1.0,
1498,98.0,0.0,0.0,98.0,left,ack518,0.0,800.169,1.0,
1499,99.0,0.0,0.0,99.0,left,ack518,0.0,779.7539999999999,1.0,
1500,100.0,0.0,0.0,100.0,left,ack518,0.0,876.424,1.0,
1501,101.0,0.0,0.0,101.0,left,ack518,0.0,1097.169,1.0,
1502,102.0,1.0,25.0,102.0,left,ack518,0.0,1237.809,0.0,
1503,103.0,0.0,0.0,103.0,left,ack518,0.0,1004.186,1.0,
1504,104.0,1.0,10.0,104.0,left,ack518,0.0,1117.263,0.0,
1505,105.0,1.0,15.0,105.0,left,ack518,0.0,730.048,0.0,
1506,106.0,1.0,15.0,106.0,left,ack518,0.0,736.831,0.0,
1507,107.0,0.0,0.0,107.0,left,ack518,0.0,2258.314,1.0,
1508,108.0,1.0,15.0,108.0,left,ack518,0.0,768.6370000000001,0.0,
1509,109.0,0.0,0.0,109.0,left,ack518,0.0,817.952,1.0,
1510,110.0,0.0,0.0,110.0,left,ack518,0.0,757.962,1.0,
1511,111.0,1.0,10.0,111.0,left,ack518,0.0,718.634,0.0,
1512,112.0,0.0,0.0,112.0,left,ack518,0.0,1332.717,1.0,
1513,113.0,0.0,0.0,113.0,left,ack518,0.0,1629.932,1.0,
1514,114.0,0.0,0.0,114.0,left,ack518,0.0,829.284,1.0,
1515,115.0,0.0,0.0,115.0,left,ack518,0.0,1107.587,1.0,
1516,116.0,0.0,0.0,116.0,left,ack518,0.0,1027.912,1.0,
1517,117.0,1.0,25.0,117.0,left,ack518,1.0,1720.586,1.0,
1518,118.0,0.0,0.0,118.0,left,ack518,0.0,1232.9969999999998,1.0,
1519,119.0,1.0,60.0,119.0,left,ack518,1.0,1711.177,1.0,
1520,120.0,0.0,0.0,120.0,left,ack518,0.0,1427.344,1.0,
1521,121.0,0.0,0.0,121.0,left,ack518,0.0,1232.682,1.0,
1522,122.0,1.0,25.0,122.0,left,ack518,0.0,1195.686,0.0,
1523,123.0,0.0,0.0,123.0,left,ack518,0.0,1449.1560000000002,1.0,
1524,124.0,1.0,60.0,124.0,left,ack518,1.0,1533.972,1.0,
1525,125.0,0.0,0.0,125.0,left,ack518,0.0,1338.948,1.0,
1526,126.0,1.0,10.0,126.0,left,ack518,0.0,1066.558,0.0,
1527,127.0,1.0,15.0,127.0,left,ack518,0.0,1291.72,0.0,
1528,128.0,0.0,0.0,128.0,left,ack518,0.0,1080.016,1.0,
1529,129.0,0.0,0.0,129.0,left,ack518,0.0,1118.709,1.0,
1530,130.0,0.0,0.0,130.0,left,ack518,0.0,1431.378,1.0,
1531,131.0,1.0,25.0,131.0,left,ack518,0.0,1448.8239999999998,0.0,
1532,132.0,1.0,60.0,132.0,left,ack518,1.0,1306.722,1.0,
1533,133.0,1.0,25.0,133.0,left,ack518,1.0,979.021,1.0,
1534,134.0,0.0,0.0,134.0,left,ack518,0.0,1446.737,1.0,
1535,135.0,1.0,60.0,135.0,left,ack518,1.0,1498.662,1.0,
1536,136.0,0.0,0.0,136.0,left,ack518,0.0,1206.702,1.0,
1537,137.0,1.0,10.0,137.0,left,ack518,0.0,1095.979,0.0,
1538,138.0,0.0,0.0,138.0,left,ack518,0.0,720.452,1.0,
1539,139.0,1.0,15.0,139.0,left,ack518,0.0,1025.971,0.0,
1540,140.0,0.0,0.0,140.0,left,ack518,0.0,1223.579,1.0,
1541,141.0,0.0,0.0,141.0,left,ack518,0.0,1970.247,1.0,
1542,142.0,0.0,0.0,142.0,left,ack518,0.0,1660.581,1.0,
1543,143.0,0.0,0.0,143.0,left,ack518,0.0,1432.108,1.0,
1544,144.0,0.0,0.0,144.0,left,ack518,0.0,1981.301,1.0,
1545,145.0,0.0,0.0,145.0,left,ack518,0.0,1311.198,1.0,
1546,146.0,0.0,0.0,146.0,left,ack518,0.0,1304.128,1.0,
1547,147.0,0.0,0.0,147.0,left,ack518,0.0,912.928,1.0,
1548,148.0,1.0,10.0,148.0,left,ack518,0.0,898.841,0.0,
1549,149.0,1.0,15.0,149.0,left,ack518,0.0,1189.151,0.0,
1550,150.0,1.0,25.0,150.0,left,ack518,1.0,1995.567,1.0,
1551,151.0,1.0,10.0,151.0,left,ack518,0.0,1200.691,0.0,
1552,152.0,1.0,60.0,152.0,left,ack518,1.0,1781.412,1.0,
1553,153.0,1.0,10.0,153.0,left,ack518,0.0,1266.065,0.0,
1554,154.0,1.0,15.0,154.0,left,ack518,0.0,1234.238,0.0,
1555,155.0,0.0,0.0,155.0,left,ack518,0.0,896.956,1.0,
1556,156.0,0.0,0.0,156.0,left,ack518,0.0,822.913,1.0,
1557,157.0,0.0,0.0,157.0,left,ack518,0.0,824.1469999999999,1.0,
1558,158.0,0.0,0.0,158.0,left,ack518,0.0,863.78,1.0,
1559,159.0,1.0,25.0,159.0,left,ack518,0.0,854.467,0.0,
1560,160.0,1.0,15.0,160.0,left,ack518,0.0,1732.357,0.0,
1561,161.0,0.0,0.0,161.0,left,ack518,0.0,1016.335,1.0,
1562,162.0,1.0,60.0,162.0,left,ack518,1.0,1438.944,1.0,
1563,163.0,0.0,0.0,163.0,left,ack518,0.0,1278.483,1.0,
1564,164.0,1.0,60.0,164.0,left,ack518,0.0,1639.431,0.0,
1565,165.0,0.0,0.0,165.0,left,ack518,0.0,1174.678,1.0,
1566,166.0,1.0,10.0,166.0,left,ack518,0.0,1190.973,0.0,
1567,167.0,0.0,0.0,167.0,left,ack518,0.0,1310.2469999999998,1.0,
1568,168.0,0.0,0.0,168.0,left,ack518,0.0,1329.564,1.0,
1569,169.0,1.0,15.0,169.0,left,ack518,1.0,2693.598,1.0,
1570,170.0,0.0,0.0,170.0,left,ack518,0.0,3186.215,1.0,
1571,171.0,0.0,0.0,171.0,left,ack518,0.0,1464.1360000000002,1.0,
1572,172.0,0.0,0.0,172.0,left,ack518,0.0,999.72,1.0,
1573,173.0,0.0,0.0,173.0,left,ack518,0.0,1128.883,1.0,
1574,174.0,1.0,60.0,174.0,left,ack518,1.0,3065.647,1.0,
1575,175.0,0.0,0.0,175.0,left,ack518,0.0,1391.454,1.0,
1576,176.0,0.0,0.0,176.0,left,ack518,0.0,1179.456,1.0,
1577,177.0,1.0,15.0,177.0,left,ack518,0.0,1191.813,0.0,
1578,178.0,0.0,0.0,178.0,left,ack518,0.0,1091.81,1.0,
1579,179.0,1.0,25.0,179.0,left,ack518,1.0,1492.649,1.0,
1580,180.0,1.0,25.0,180.0,left,ack518,1.0,1858.093,1.0,
1581,181.0,1.0,15.0,181.0,left,ack518,0.0,1637.835,0.0,
1582,182.0,1.0,10.0,182.0,left,ack518,0.0,3072.129,0.0,
1583,183.0,0.0,0.0,183.0,left,ack518,0.0,1211.66,1.0,
1584,184.0,0.0,0.0,184.0,left,ack518,0.0,1339.023,1.0,
1585,185.0,1.0,15.0,185.0,left,ack518,0.0,2729.0350000000003,0.0,
1586,186.0,1.0,10.0,186.0,left,ack518,0.0,1165.325,0.0,
1587,187.0,1.0,60.0,187.0,left,ack518,1.0,1667.794,1.0,
1588,188.0,1.0,15.0,188.0,left,ack518,0.0,1578.559,0.0,
1589,189.0,0.0,0.0,189.0,left,ack518,0.0,1091.072,1.0,
1590,190.0,0.0,0.0,190.0,left,ack518,0.0,1189.79,1.0,
1591,191.0,1.0,10.0,191.0,left,ack518,0.0,997.123,0.0,
1592,192.0,1.0,10.0,192.0,left,ack518,0.0,1115.831,0.0,
1593,193.0,1.0,15.0,193.0,left,ack518,0.0,947.83,0.0,
1594,194.0,1.0,60.0,194.0,left,ack518,1.0,1565.611,1.0,
1595,195.0,1.0,15.0,195.0,left,ack518,0.0,1321.34,0.0,
1596,196.0,0.0,0.0,196.0,left,ack518,0.0,798.925,1.0,
1597,197.0,1.0,60.0,197.0,left,ack518,1.0,1734.834,1.0,
1598,198.0,1.0,15.0,198.0,left,ack518,0.0,2476.284,0.0,
1599,199.0,1.0,25.0,199.0,left,ack518,1.0,2031.234,1.0,
1600,0.0,1.0,60.0,0.0,left,rl3752,1.0,14081.929,1.0,
1601,1.0,1.0,10.0,1.0,left,rl3752,1.0,3914.88,1.0,
1602,2.0,1.0,10.0,2.0,left,rl3752,0.0,6040.964,0.0,
1603,3.0,1.0,15.0,3.0,left,rl3752,0.0,40456.476,0.0,
1604,4.0,0.0,0.0,4.0,left,rl3752,0.0,1365.826,1.0,
1605,5.0,1.0,60.0,5.0,left,rl3752,1.0,1788.6519999999998,1.0,
1606,6.0,0.0,0.0,6.0,left,rl3752,1.0,1677.722,0.0,
1607,7.0,1.0,60.0,7.0,left,rl3752,1.0,943.05,1.0,
1608,8.0,1.0,25.0,8.0,left,rl3752,1.0,857.7479999999999,1.0,
1609,9.0,1.0,15.0,9.0,left,rl3752,0.0,1371.5,0.0,
1610,10.0,0.0,0.0,10.0,left,rl3752,0.0,2459.394,1.0,
1611,11.0,0.0,0.0,11.0,left,rl3752,0.0,1185.552,1.0,
1612,12.0,0.0,0.0,12.0,left,rl3752,0.0,961.815,1.0,
1613,13.0,0.0,0.0,13.0,left,rl3752,1.0,1578.994,0.0,
1614,14.0,1.0,15.0,14.0,left,rl3752,1.0,1706.313,1.0,
1615,15.0,1.0,10.0,15.0,left,rl3752,0.0,1980.578,0.0,
1616,16.0,0.0,0.0,16.0,left,rl3752,0.0,1031.8339999999998,1.0,
1617,17.0,0.0,0.0,17.0,left,rl3752,0.0,1231.917,1.0,
1618,18.0,0.0,0.0,18.0,left,rl3752,0.0,864.111,1.0,
1619,19.0,0.0,0.0,19.0,left,rl3752,0.0,2823.51,1.0,
1620,20.0,1.0,25.0,20.0,left,rl3752,1.0,1168.255,1.0,
1621,21.0,0.0,0.0,21.0,left,rl3752,0.0,1583.072,1.0,
1622,22.0,0.0,0.0,22.0,left,rl3752,0.0,2247.474,1.0,
1623,23.0,1.0,60.0,23.0,left,rl3752,1.0,1666.914,1.0,
1624,24.0,1.0,60.0,24.0,left,rl3752,1.0,4058.092,1.0,
1625,25.0,0.0,0.0,25.0,left,rl3752,1.0,4207.919000000001,0.0,
1626,26.0,1.0,60.0,26.0,left,rl3752,1.0,6208.304,1.0,
1627,27.0,1.0,10.0,27.0,left,rl3752,1.0,1239.049,1.0,
1628,28.0,1.0,60.0,28.0,left,rl3752,1.0,979.17,1.0,
1629,29.0,0.0,0.0,29.0,left,rl3752,0.0,3033.358,1.0,
1630,30.0,1.0,15.0,30.0,left,rl3752,0.0,2159.976,0.0,
1631,31.0,1.0,25.0,31.0,left,rl3752,1.0,1914.122,1.0,
1632,32.0,0.0,0.0,32.0,left,rl3752,0.0,3813.92,1.0,
1633,33.0,0.0,0.0,33.0,left,rl3752,1.0,1520.682,0.0,
1634,34.0,0.0,0.0,34.0,left,rl3752,1.0,961.437,0.0,
1635,35.0,1.0,60.0,35.0,left,rl3752,1.0,933.158,1.0,
1636,36.0,1.0,25.0,36.0,left,rl3752,1.0,986.726,1.0,
1637,37.0,1.0,25.0,37.0,left,rl3752,1.0,1011.189,1.0,
1638,38.0,0.0,0.0,38.0,left,rl3752,0.0,1910.993,1.0,
1639,39.0,1.0,10.0,39.0,left,rl3752,1.0,3293.774,1.0,
1640,40.0,0.0,0.0,40.0,left,rl3752,0.0,3126.304,1.0,
1641,41.0,1.0,25.0,41.0,left,rl3752,1.0,2463.733,1.0,
1642,42.0,1.0,25.0,42.0,left,rl3752,1.0,4122.268,1.0,
1643,43.0,1.0,60.0,43.0,left,rl3752,1.0,1568.002,1.0,
1644,44.0,1.0,10.0,44.0,left,rl3752,1.0,1131.9889999999998,1.0,
1645,45.0,1.0,25.0,45.0,left,rl3752,0.0,1539.717,0.0,
1646,46.0,1.0,25.0,46.0,left,rl3752,0.0,1406.819,0.0,
1647,47.0,0.0,0.0,47.0,left,rl3752,0.0,1379.2530000000002,1.0,
1648,48.0,0.0,0.0,48.0,left,rl3752,0.0,1681.069,1.0,
1649,49.0,0.0,0.0,49.0,left,rl3752,0.0,894.276,1.0,
1650,50.0,1.0,10.0,50.0,left,rl3752,0.0,845.171,0.0,
1651,51.0,1.0,25.0,51.0,left,rl3752,1.0,1805.677,1.0,
1652,52.0,0.0,0.0,52.0,left,rl3752,1.0,3954.244,0.0,
1653,53.0,0.0,0.0,53.0,left,rl3752,1.0,1588.23,0.0,
1654,54.0,1.0,25.0,54.0,left,rl3752,1.0,885.324,1.0,
1655,55.0,0.0,0.0,55.0,left,rl3752,1.0,811.217,0.0,
1656,56.0,0.0,0.0,56.0,left,rl3752,1.0,838.781,0.0,
1657,57.0,0.0,0.0,57.0,left,rl3752,0.0,1094.59,1.0,
1658,58.0,0.0,0.0,58.0,left,rl3752,0.0,963.954,1.0,
1659,59.0,1.0,25.0,59.0,left,rl3752,1.0,1680.069,1.0,
1660,60.0,1.0,10.0,60.0,left,rl3752,0.0,1400.554,0.0,
1661,61.0,1.0,15.0,61.0,left,rl3752,0.0,989.0,0.0,
1662,62.0,1.0,15.0,62.0,left,rl3752,1.0,1011.7100000000002,1.0,
1663,63.0,1.0,15.0,63.0,left,rl3752,1.0,1413.435,1.0,
1664,64.0,0.0,0.0,64.0,left,rl3752,1.0,1136.517,0.0,
1665,65.0,1.0,10.0,65.0,left,rl3752,1.0,1085.901,1.0,
1666,66.0,0.0,0.0,66.0,left,rl3752,1.0,1582.443,0.0,
1667,67.0,0.0,0.0,67.0,left,rl3752,0.0,865.8209999999999,1.0,
1668,68.0,1.0,60.0,68.0,left,rl3752,1.0,1316.518,1.0,
1669,69.0,0.0,0.0,69.0,left,rl3752,0.0,1430.965,1.0,
1670,70.0,1.0,60.0,70.0,left,rl3752,1.0,1299.206,1.0,
1671,71.0,0.0,0.0,71.0,left,rl3752,1.0,1458.076,0.0,
1672,72.0,0.0,0.0,72.0,left,rl3752,1.0,2503.844,0.0,
1673,73.0,0.0,0.0,73.0,left,rl3752,0.0,1563.997,1.0,
1674,74.0,1.0,10.0,74.0,left,rl3752,0.0,965.76,0.0,
1675,75.0,1.0,15.0,75.0,left,rl3752,0.0,771.224,0.0,
1676,76.0,1.0,10.0,76.0,left,rl3752,0.0,1233.362,0.0,
1677,77.0,0.0,0.0,77.0,left,rl3752,0.0,840.622,1.0,
1678,78.0,0.0,0.0,78.0,left,rl3752,0.0,1030.071,1.0,
1679,79.0,1.0,25.0,79.0,left,rl3752,1.0,1481.167,1.0,
1680,80.0,0.0,0.0,80.0,left,rl3752,1.0,1265.307,0.0,
1681,81.0,1.0,60.0,81.0,left,rl3752,1.0,3733.306,1.0,
1682,82.0,0.0,0.0,82.0,left,rl3752,1.0,1458.764,0.0,
1683,83.0,0.0,0.0,83.0,left,rl3752,1.0,1748.6660000000002,0.0,
1684,84.0,0.0,0.0,84.0,left,rl3752,0.0,1448.573,1.0,
1685,85.0,0.0,0.0,85.0,left,rl3752,0.0,1465.305,1.0,
1686,86.0,1.0,15.0,86.0,left,rl3752,1.0,1123.629,1.0,
1687,87.0,1.0,25.0,87.0,left,rl3752,1.0,1233.078,1.0,
1688,88.0,1.0,10.0,88.0,left,rl3752,1.0,1199.702,1.0,
1689,89.0,1.0,60.0,89.0,left,rl3752,1.0,1734.687,1.0,
1690,90.0,0.0,0.0,90.0,left,rl3752,1.0,14.782,0.0,
1691,91.0,0.0,0.0,91.0,left,rl3752,0.0,1081.055,1.0,
1692,92.0,0.0,0.0,92.0,left,rl3752,0.0,1597.1409999999998,1.0,
1693,93.0,1.0,25.0,93.0,left,rl3752,0.0,833.663,0.0,
1694,94.0,1.0,60.0,94.0,left,rl3752,1.0,1440.563,1.0,
1695,95.0,1.0,10.0,95.0,left,rl3752,1.0,1150.197,1.0,
1696,96.0,0.0,0.0,96.0,left,rl3752,0.0,875.325,1.0,
1697,97.0,0.0,0.0,97.0,left,rl3752,0.0,639.456,1.0,
1698,98.0,0.0,0.0,98.0,left,rl3752,1.0,1025.7659999999998,0.0,
1699,99.0,0.0,0.0,99.0,left,rl3752,0.0,876.918,1.0,
1700,100.0,0.0,0.0,100.0,left,rl3752,1.0,1036.107,0.0,
1701,101.0,0.0,0.0,101.0,left,rl3752,1.0,636.07,0.0,
1702,102.0,1.0,25.0,102.0,left,rl3752,0.0,1045.303,0.0,
1703,103.0,0.0,0.0,103.0,left,rl3752,0.0,1001.657,1.0,
1704,104.0,1.0,10.0,104.0,left,rl3752,0.0,928.853,0.0,
1705,105.0,1.0,15.0,105.0,left,rl3752,0.0,786.937,0.0,
1706,106.0,1.0,15.0,106.0,left,rl3752,0.0,1023.92,0.0,
1707,107.0,0.0,0.0,107.0,left,rl3752,0.0,1032.356,1.0,
1708,108.0,1.0,15.0,108.0,left,rl3752,0.0,929.42,0.0,
1709,109.0,0.0,0.0,109.0,left,rl3752,0.0,781.6560000000001,1.0,
1710,110.0,0.0,0.0,110.0,left,rl3752,0.0,968.558,1.0,
1711,111.0,1.0,10.0,111.0,left,rl3752,1.0,1990.349,1.0,
1712,112.0,0.0,0.0,112.0,left,rl3752,1.0,1521.374,0.0,
1713,113.0,0.0,0.0,113.0,left,rl3752,1.0,938.451,0.0,
1714,114.0,0.0,0.0,114.0,left,rl3752,1.0,935.58,0.0,
1715,115.0,0.0,0.0,115.0,left,rl3752,1.0,1046.24,0.0,
1716,116.0,0.0,0.0,116.0,left,rl3752,1.0,916.676,0.0,
1717,117.0,1.0,25.0,117.0,left,rl3752,1.0,706.456,1.0,
1718,118.0,0.0,0.0,118.0,left,rl3752,1.0,1209.854,0.0,
1719,119.0,1.0,60.0,119.0,left,rl3752,1.0,826.973,1.0,
1720,120.0,0.0,0.0,120.0,left,rl3752,1.0,1409.082,0.0,
1721,121.0,0.0,0.0,121.0,left,rl3752,0.0,1415.314,1.0,
1722,122.0,1.0,25.0,122.0,left,rl3752,1.0,1736.014,1.0,
1723,123.0,0.0,0.0,123.0,left,rl3752,0.0,884.125,1.0,
1724,124.0,1.0,60.0,124.0,left,rl3752,1.0,1721.377,1.0,
1725,125.0,0.0,0.0,125.0,left,rl3752,1.0,2199.0820000000003,0.0,
1726,126.0,1.0,10.0,126.0,left,rl3752,0.0,1786.0259999999998,0.0,
1727,127.0,1.0,15.0,127.0,left,rl3752,0.0,2026.664,0.0,
1728,128.0,0.0,0.0,128.0,left,rl3752,0.0,1177.761,1.0,
1729,129.0,0.0,0.0,129.0,left,rl3752,0.0,1500.721,1.0,
1730,130.0,0.0,0.0,130.0,left,rl3752,0.0,1298.127,1.0,
1731,131.0,1.0,25.0,131.0,left,rl3752,0.0,1581.089,0.0,
1732,132.0,1.0,60.0,132.0,left,rl3752,1.0,1512.805,1.0,
1733,133.0,1.0,25.0,133.0,left,rl3752,1.0,1019.579,1.0,
1734,134.0,0.0,0.0,134.0,left,rl3752,0.0,2630.876,1.0,
1735,135.0,1.0,60.0,135.0,left,rl3752,1.0,1482.691,1.0,
1736,136.0,0.0,0.0,136.0,left,rl3752,0.0,31260.4,1.0,
1737,137.0,1.0,10.0,137.0,left,rl3752,0.0,6600.949,0.0,
1738,138.0,0.0,0.0,138.0,left,rl3752,0.0,1431.726,1.0,
1739,139.0,1.0,15.0,139.0,left,rl3752,0.0,800.855,0.0,
1740,140.0,0.0,0.0,140.0,left,rl3752,0.0,4064.259,1.0,
1741,141.0,0.0,0.0,141.0,left,rl3752,0.0,7490.94,1.0,
1742,142.0,0.0,0.0,142.0,left,rl3752,0.0,764.822,1.0,
1743,143.0,0.0,0.0,143.0,left,rl3752,1.0,1016.292,0.0,
1744,144.0,0.0,0.0,144.0,left,rl3752,1.0,557.0070000000001,0.0,
1745,145.0,0.0,0.0,145.0,left,rl3752,0.0,1496.87,1.0,
1746,146.0,0.0,0.0,146.0,left,rl3752,1.0,941.274,0.0,
1747,147.0,0.0,0.0,147.0,left,rl3752,0.0,1824.165,1.0,
1748,148.0,1.0,10.0,148.0,left,rl3752,0.0,16799.798,0.0,
1749,149.0,1.0,15.0,149.0,left,rl3752,0.0,4896.043,0.0,
1750,150.0,1.0,25.0,150.0,left,rl3752,0.0,971.165,0.0,
1751,151.0,1.0,10.0,151.0,left,rl3752,0.0,1214.2759999999998,0.0,
1752,152.0,1.0,60.0,152.0,left,rl3752,1.0,3269.454,1.0,
1753,153.0,1.0,10.0,153.0,left,rl3752,1.0,1096.139,1.0,
1754,154.0,1.0,15.0,154.0,left,rl3752,0.0,13742.178,0.0,
1755,155.0,0.0,0.0,155.0,left,rl3752,0.0,14642.763,1.0,
1756,156.0,0.0,0.0,156.0,left,rl3752,0.0,1571.648,1.0,
1757,157.0,0.0,0.0,157.0,left,rl3752,0.0,945.74,1.0,
1758,158.0,0.0,0.0,158.0,left,rl3752,0.0,587.639,1.0,
1759,159.0,1.0,25.0,159.0,left,rl3752,1.0,1118.9499999999998,1.0,
1760,160.0,1.0,15.0,160.0,left,rl3752,0.0,3287.021,0.0,
1761,161.0,0.0,0.0,161.0,left,rl3752,1.0,734.4079999999999,0.0,
1762,162.0,1.0,60.0,162.0,left,rl3752,1.0,704.256,1.0,
1763,163.0,0.0,0.0,163.0,left,rl3752,1.0,1535.164,0.0,
1764,164.0,1.0,60.0,164.0,left,rl3752,1.0,1389.6029999999998,1.0,
1765,165.0,0.0,0.0,165.0,left,rl3752,0.0,1244.121,1.0,
1766,166.0,1.0,10.0,166.0,left,rl3752,1.0,767.9580000000001,1.0,
1767,167.0,0.0,0.0,167.0,left,rl3752,1.0,652.443,0.0,
1768,168.0,0.0,0.0,168.0,left,rl3752,1.0,640.466,0.0,
1769,169.0,1.0,15.0,169.0,left,rl3752,1.0,733.9480000000001,1.0,
1770,170.0,0.0,0.0,170.0,left,rl3752,1.0,660.267,0.0,
1771,171.0,0.0,0.0,171.0,left,rl3752,0.0,1445.016,1.0,
1772,172.0,0.0,0.0,172.0,left,rl3752,1.0,622.9590000000001,0.0,
1773,173.0,0.0,0.0,173.0,left,rl3752,1.0,585.189,0.0,
1774,174.0,1.0,60.0,174.0,left,rl3752,1.0,927.642,1.0,
1775,175.0,0.0,0.0,175.0,left,rl3752,1.0,606.016,0.0,
1776,176.0,0.0,0.0,176.0,left,rl3752,1.0,1416.251,0.0,
1777,177.0,1.0,15.0,177.0,left,rl3752,0.0,454.67,0.0,
1778,178.0,0.0,0.0,178.0,left,rl3752,0.0,397.455,1.0,
1779,179.0,1.0,25.0,179.0,left,rl3752,0.0,244.39,0.0,
1780,180.0,1.0,25.0,180.0,left,rl3752,0.0,503.667,0.0,
1781,181.0,1.0,15.0,181.0,left,rl3752,1.0,396.103,1.0,
1782,182.0,1.0,10.0,182.0,left,rl3752,0.0,802.83,0.0,
1783,183.0,0.0,0.0,183.0,left,rl3752,1.0,339.007,0.0,
1784,184.0,0.0,0.0,184.0,left,rl3752,1.0,1207.826,0.0,
1785,185.0,1.0,15.0,185.0,left,rl3752,1.0,1566.211,1.0,
1786,186.0,1.0,10.0,186.0,left,rl3752,0.0,442.025,0.0,
1787,187.0,1.0,60.0,187.0,left,rl3752,1.0,1092.473,1.0,
1788,188.0,1.0,15.0,188.0,left,rl3752,1.0,1509.069,1.0,
1789,189.0,0.0,0.0,189.0,left,rl3752,0.0,1196.2489999999998,1.0,
1790,190.0,0.0,0.0,190.0,left,rl3752,0.0,795.621,1.0,
1791,191.0,1.0,10.0,191.0,left,rl3752,0.0,1581.201,0.0,
1792,192.0,1.0,10.0,192.0,left,rl3752,0.0,2000.4400000000005,0.0,
1793,193.0,1.0,15.0,193.0,left,rl3752,0.0,871.893,0.0,
1794,194.0,1.0,60.0,194.0,left,rl3752,1.0,1102.115,1.0,
1795,195.0,1.0,15.0,195.0,left,rl3752,0.0,1689.1370000000002,0.0,
1796,196.0,0.0,0.0,196.0,left,rl3752,1.0,657.917,0.0,
1797,197.0,1.0,60.0,197.0,left,rl3752,1.0,405.151,1.0,
1798,198.0,1.0,15.0,198.0,left,rl3752,1.0,454.552,1.0,
1799,199.0,1.0,25.0,199.0,left,rl3752,1.0,359.036,1.0,
1800,0.0,1.0,60.0,0.0,left,zc1636,1.0,20550.996000000003,1.0,
1801,1.0,1.0,10.0,1.0,left,zc1636,1.0,28877.588,1.0,
1802,2.0,1.0,10.0,2.0,left,zc1636,0.0,1930.183,0.0,
1803,3.0,1.0,15.0,3.0,left,zc1636,0.0,3063.561,0.0,
1804,4.0,0.0,0.0,4.0,left,zc1636,0.0,1735.15,1.0,
1805,5.0,1.0,60.0,5.0,left,zc1636,1.0,1178.002,1.0,
1806,6.0,0.0,0.0,6.0,left,zc1636,0.0,2586.1580000000004,1.0,
1807,7.0,1.0,60.0,7.0,left,zc1636,1.0,1040.059,1.0,
1808,8.0,1.0,25.0,8.0,left,zc1636,1.0,986.165,1.0,
1809,9.0,1.0,15.0,9.0,left,zc1636,1.0,5492.169,1.0,
1810,10.0,0.0,0.0,10.0,left,zc1636,0.0,4683.7210000000005,1.0,
1811,11.0,0.0,0.0,11.0,left,zc1636,0.0,968.163,1.0,
1812,12.0,0.0,0.0,12.0,left,zc1636,0.0,782.6260000000001,1.0,
1813,13.0,0.0,0.0,13.0,left,zc1636,0.0,4012.608,1.0,
1814,14.0,1.0,15.0,14.0,left,zc1636,0.0,1060.635,0.0,
1815,15.0,1.0,10.0,15.0,left,zc1636,0.0,7038.062,0.0,
1816,16.0,0.0,0.0,16.0,left,zc1636,0.0,2677.295,1.0,
1817,17.0,0.0,0.0,17.0,left,zc1636,0.0,878.5849999999999,1.0,
1818,18.0,0.0,0.0,18.0,left,zc1636,0.0,3104.672,1.0,
1819,19.0,0.0,0.0,19.0,left,zc1636,0.0,2043.778,1.0,
1820,20.0,1.0,25.0,20.0,left,zc1636,0.0,1461.94,0.0,
1821,21.0,0.0,0.0,21.0,left,zc1636,0.0,2100.46,1.0,
1822,22.0,0.0,0.0,22.0,left,zc1636,0.0,1083.764,1.0,
1823,23.0,1.0,60.0,23.0,left,zc1636,1.0,1103.377,1.0,
1824,24.0,1.0,60.0,24.0,left,zc1636,1.0,736.429,1.0,
1825,25.0,0.0,0.0,25.0,left,zc1636,0.0,1711.185,1.0,
1826,26.0,1.0,60.0,26.0,left,zc1636,1.0,961.483,1.0,
1827,27.0,1.0,10.0,27.0,left,zc1636,0.0,2877.8100000000004,0.0,
