trialResp.keys,trialResp.corr,trialResp.rt,loop.thisRepN,loop.thisTrialN,loop.thisN,loop.thisIndex,loop.ran,loop.order,imagefile,corrAns,angle,participant,session,date,expName,psychopyVersion,frameRate
d,1,3.013000011,1,0,100,30,1,99,i14_50_R.jpg,d,50,SK36,001,2019-10-16_10h06.46.723,MentalRotationFinal,3.1.2,60
d,1,2.631000042,1,0,100,16,1,99,i8_50_R.jpg,d,50,SK36,001,2019-10-16_10h06.46.723,MentalRotationFinal,3.1.2,60
d,1,6.590999842,1,0,100,5,1,99,i3_50_R.jpg,d,50,SK36,001,2019-10-16_10h06.46.723,MentalRotationFinal,3.1.2,60
s,0,2.652000189,1,0,100,44,1,99,i20_150_R.jpg,d,150,SK36,001,2019-10-16_10h06.46.723,MentalRotationFinal,3.1.2,60
s,1,3.802000046,1,0,100,60,1,99,i28_50.jpg,s,50,SK36,001,2019-10-16_10h06.46.723,MentalRotationFinal,3.1.2,60
s,1,2.819000006,1,0,100,4,1,99,i2_100.jpg,s,100,SK36,001,2019-10-16_10h06.46.723,MentalRotationFinal,3.1.2,60
d,1,2.980999947,1,0,100,95,1,99,i44_100_R.jpg,d,100,SK36,001,2019-10-16_10h06.46.723,MentalRotationFinal,3.1.2,60
s,1,2.667000055,1,0,100,88,1,99,i40_150.jpg,s,150,SK36,001,2019-10-16_10h06.46.723,MentalRotationFinal,3.1.2,60
d,1,2.476000071,1,0,100,28,1,99,i13_150_R.jpg,d,150,SK36,001,2019-10-16_10h06.46.723,MentalRotationFinal,3.1.2,60
s,1,3.555999994,1,0,100,62,1,99,i29_0.jpg,s,0,SK36,001,2019-10-16_10h06.46.723,MentalRotationFinal,3.1.2,60
d,1,2.664999962,1,0,100,7,1,99,i4_50_R.jpg,d,50,SK36,001,2019-10-16_10h06.46.723,MentalRotationFinal,3.1.2,60
s,1,2.776000023,1,0,100,99,1,99,i48_100.jpg,s,100,SK36,001,2019-10-16_10h06.46.723,MentalRotationFinal,3.1.2,60
s,1,1.993999958,1,0,100,41,1,99,i19_50.jpg,s,50,SK36,001,2019-10-16_10h06.46.723,MentalRotationFinal,3.1.2,60
s,1,1.746000051,1,0,100,86,1,99,i39_150.jpg,s,150,SK36,001,2019-10-16_10h06.46.723,MentalRotationFinal,3.1.2,60
s,1,1.463000059,1,0,100,18,1,99,i9_0.jpg,s,0,SK36,001,2019-10-16_10h06.46.723,MentalRotationFinal,3.1.2,60
s,0,2.344000101,1,0,100,55,1,99,i25_150_R.jpg,d,150,SK36,001,2019-10-16_10h06.46.723,MentalRotationFinal,3.1.2,60
s,1,3.532000065,1,0,100,90,1,99,i41_150.jpg,s,150,SK36,001,2019-10-16_10h06.46.723,MentalRotationFinal,3.1.2,60
d,1,2.434000015,1,0,100,46,1,99,i21_150_R.jpg,d,150,SK36,001,2019-10-16_10h06.46.723,MentalRotationFinal,3.1.2,60
s,1,2.546999931,1,0,100,98,1,99,i47_100.jpg,s,100,SK36,001,2019-10-16_10h06.46.723,MentalRotationFinal,3.1.2,60
d,1,2.519000053,1,0,100,35,1,99,i16_150_R.jpg,d,150,SK36,001,2019-10-16_10h06.46.723,MentalRotationFinal,3.1.2,60
s,1,2.139999866,1,0,100,17,1,99,i8_100.jpg,s,100,SK36,001,2019-10-16_10h06.46.723,MentalRotationFinal,3.1.2,60
d,1,1.634000063,1,0,100,12,1,99,i6_50_R.jpg,d,50,SK36,001,2019-10-16_10h06.46.723,MentalRotationFinal,3.1.2,60
s,1,4.020999908,1,0,100,58,1,99,i27_50.jpg,s,50,SK36,001,2019-10-16_10h06.46.723,MentalRotationFinal,3.1.2,60
d,1,6.256999969,1,0,100,37,1,99,i17_150_R.jpg,d,150,SK36,001,2019-10-16_10h06.46.723,MentalRotationFinal,3.1.2,60
d,1,4.507999897,1,0,100,10,1,99,i5_50_R.jpg,d,50,SK36,001,2019-10-16_10h06.46.723,MentalRotationFinal,3.1.2,60
s,1,6.059000015,1,0,100,22,1,99,i10_100.jpg,s,100,SK36,001,2019-10-16_10h06.46.723,MentalRotationFinal,3.1.2,60
d,1,4.845000029,1,0,100,31,1,99,i14_150_R.jpg,d,150,SK36,001,2019-10-16_10h06.46.723,MentalRotationFinal,3.1.2,60
d,1,5.407999992,1,0,100,71,1,99,i33_100_R.jpg,d,100,SK36,001,2019-10-16_10h06.46.723,MentalRotationFinal,3.1.2,60
s,1,5.633999825,1,0,100,77,1,99,i35_150.jpg,s,150,SK36,001,2019-10-16_10h06.46.723,MentalRotationFinal,3.1.2,60
s,1,3.217999935,1,0,100,26,1,99,i12_100.jpg,s,100,SK36,001,2019-10-16_10h06.46.723,MentalRotationFinal,3.1.2,60
s,1,4.256999969,1,0,100,61,1,99,i28_150.jpg,s,150,SK36,001,2019-10-16_10h06.46.723,MentalRotationFinal,3.1.2,60
d,1,3.585999966,1,0,100,19,1,99,i9_50_R.jpg,d,50,SK36,001,2019-10-16_10h06.46.723,MentalRotationFinal,3.1.2,60
d,1,6.054000139,1,0,100,39,1,99,i18_150_R.jpg,d,150,SK36,001,2019-10-16_10h06.46.723,MentalRotationFinal,3.1.2,60
d,0,7.279999971,1,0,100,13,1,99,i6_100.jpg,s,100,SK36,001,2019-10-16_10h06.46.723,MentalRotationFinal,3.1.2,60
s,1,5.339999914,1,0,100,11,1,99,i5_100.jpg,s,100,SK36,001,2019-10-16_10h06.46.723,MentalRotationFinal,3.1.2,60
d,1,3.536000013,1,0,100,91,1,99,i42_100_R.jpg,d,100,SK36,001,2019-10-16_10h06.46.723,MentalRotationFinal,3.1.2,60
s,1,2.108999968,1,0,100,47,1,99,i22_50.jpg,s,50,SK36,001,2019-10-16_10h06.46.723,MentalRotationFinal,3.1.2,60
d,1,4.320000172,1,0,100,80,1,99,i37_100_R.jpg,d,100,SK36,001,2019-10-16_10h06.46.723,MentalRotationFinal,3.1.2,60
s,1,1.330000162,1,0,100,29,1,99,i14_0.jpg,s,0,SK36,001,2019-10-16_10h06.46.723,MentalRotationFinal,3.1.2,60
d,1,5.688999891,1,0,100,52,1,99,i24_150_R.jpg,d,150,SK36,001,2019-10-16_10h06.46.723,MentalRotationFinal,3.1.2,60
s,1,2.173999786,1,0,100,45,1,99,i21_50.jpg,s,50,SK36,001,2019-10-16_10h06.46.723,MentalRotationFinal,3.1.2,60
d,1,1.892999887,1,0,100,48,1,99,i22_150_R.jpg,d,150,SK36,001,2019-10-16_10h06.46.723,MentalRotationFinal,3.1.2,60
d,1,2.638999939,1,0,100,82,1,99,i38_100_R.jpg,d,100,SK36,001,2019-10-16_10h06.46.723,MentalRotationFinal,3.1.2,60
d,1,1.648000002,1,0,100,32,1,99,i15_50_R.jpg,d,50,SK36,001,2019-10-16_10h06.46.723,MentalRotationFinal,3.1.2,60
d,1,3.115999937,1,0,100,67,1,99,i31_100_R.jpg,d,100,SK36,001,2019-10-16_10h06.46.723,MentalRotationFinal,3.1.2,60
s,1,1.164000034,1,0,100,0,1,99,i1_0.jpg,s,0,SK36,001,2019-10-16_10h06.46.723,MentalRotationFinal,3.1.2,60
s,1,4.470999956,1,0,100,66,1,99,i30_150.jpg,s,150,SK36,001,2019-10-16_10h06.46.723,MentalRotationFinal,3.1.2,60
d,1,1.836999893,1,0,100,3,1,99,i2_50_R.jpg,d,50,SK36,001,2019-10-16_10h06.46.723,MentalRotationFinal,3.1.2,60
s,1,4.262000084,1,0,100,72,1,99,i33_150.jpg,s,150,SK36,001,2019-10-16_10h06.46.723,MentalRotationFinal,3.1.2,60
d,1,3.42599988,1,0,100,42,1,99,i19_150_R.jpg,d,150,SK36,001,2019-10-16_10h06.46.723,MentalRotationFinal,3.1.2,60
s,1,4.480999947,1,0,100,56,1,99,i26_50.jpg,s,50,SK36,001,2019-10-16_10h06.46.723,MentalRotationFinal,3.1.2,60
s,1,1.336000204,1,0,100,53,1,99,i25_0.jpg,s,0,SK36,001,2019-10-16_10h06.46.723,MentalRotationFinal,3.1.2,60
s,1,3.493999958,1,0,100,74,1,99,i34_150.jpg,s,150,SK36,001,2019-10-16_10h06.46.723,MentalRotationFinal,3.1.2,60
s,1,2.944999933,1,0,100,6,1,99,i3_100.jpg,s,100,SK36,001,2019-10-16_10h06.46.723,MentalRotationFinal,3.1.2,60
d,1,3.684999943,1,0,100,76,1,99,i35_100_R.jpg,d,100,SK36,001,2019-10-16_10h06.46.723,MentalRotationFinal,3.1.2,60
s,1,4.029000044,1,0,100,68,1,99,i31_150.jpg,s,150,SK36,001,2019-10-16_10h06.46.723,MentalRotationFinal,3.1.2,60
d,1,2.601999998,1,0,100,96,1,99,i45_100_R.jpg,d,100,SK36,001,2019-10-16_10h06.46.723,MentalRotationFinal,3.1.2,60
d,1,7.244999886,1,0,100,21,1,99,i10_50_R.jpg,d,50,SK36,001,2019-10-16_10h06.46.723,MentalRotationFinal,3.1.2,60
s,1,2.678000212,1,0,100,15,1,99,i7_100.jpg,s,100,SK36,001,2019-10-16_10h06.46.723,MentalRotationFinal,3.1.2,60
d,1,2.088999987,1,0,100,25,1,99,i12_50_R.jpg,d,50,SK36,001,2019-10-16_10h06.46.723,MentalRotationFinal,3.1.2,60
d,1,3.836999893,1,0,100,14,1,99,i7_50_R.jpg,d,50,SK36,001,2019-10-16_10h06.46.723,MentalRotationFinal,3.1.2,60
d,1,7.850000143,1,0,100,85,1,99,i39_100_R.jpg,d,100,SK36,001,2019-10-16_10h06.46.723,MentalRotationFinal,3.1.2,60
s,1,3.792999983,1,0,100,70,1,99,i32_150.jpg,s,150,SK36,001,2019-10-16_10h06.46.723,MentalRotationFinal,3.1.2,60
s,1,2.305000067,1,0,100,20,1,99,i9_100.jpg,s,100,SK36,001,2019-10-16_10h06.46.723,MentalRotationFinal,3.1.2,60
d,1,3.404000044,1,0,100,33,1,99,i15_150_R.jpg,d,150,SK36,001,2019-10-16_10h06.46.723,MentalRotationFinal,3.1.2,60
d,1,1.821000099,1,0,100,1,1,99,i1_50_R.jpg,d,50,SK36,001,2019-10-16_10h06.46.723,MentalRotationFinal,3.1.2,60
d,1,3.489000082,1,0,100,73,1,99,i34_100_R.jpg,d,100,SK36,001,2019-10-16_10h06.46.723,MentalRotationFinal,3.1.2,60
s,1,6.182999849,1,0,100,79,1,99,i36_150.jpg,s,150,SK36,001,2019-10-16_10h06.46.723,MentalRotationFinal,3.1.2,60
s,1,3.614000082,1,0,100,51,1,99,i24_50.jpg,s,50,SK36,001,2019-10-16_10h06.46.723,MentalRotationFinal,3.1.2,60
s,1,1.855999947,1,0,100,34,1,99,i16_50.jpg,s,50,SK36,001,2019-10-16_10h06.46.723,MentalRotationFinal,3.1.2,60
d,1,5.555000067,1,0,100,87,1,99,i40_100_R.jpg,d,100,SK36,001,2019-10-16_10h06.46.723,MentalRotationFinal,3.1.2,60
d,1,2.694000006,1,0,100,50,1,99,i23_150_R.jpg,d,150,SK36,001,2019-10-16_10h06.46.723,MentalRotationFinal,3.1.2,60
d,1,7.438000202,1,0,100,57,1,99,i26_150_R.jpg,d,150,SK36,001,2019-10-16_10h06.46.723,MentalRotationFinal,3.1.2,60
s,1,2.773999929,1,0,100,64,1,99,i29_150.jpg,s,150,SK36,001,2019-10-16_10h06.46.723,MentalRotationFinal,3.1.2,60
d,1,4.05700016,1,0,100,23,1,99,i11_50_R.jpg,d,50,SK36,001,2019-10-16_10h06.46.723,MentalRotationFinal,3.1.2,60
s,1,1.878000021,1,0,100,38,1,99,i18_50.jpg,s,50,SK36,001,2019-10-16_10h06.46.723,MentalRotationFinal,3.1.2,60
s,1,2.409999847,1,0,100,49,1,99,i23_50.jpg,s,50,SK36,001,2019-10-16_10h06.46.723,MentalRotationFinal,3.1.2,60
s,1,1.496000051,1,0,100,75,1,99,i35_0.jpg,s,0,SK36,001,2019-10-16_10h06.46.723,MentalRotationFinal,3.1.2,60
s,1,2.927000046,1,0,100,24,1,99,i11_100.jpg,s,100,SK36,001,2019-10-16_10h06.46.723,MentalRotationFinal,3.1.2,60
s,1,0.985000134,1,0,100,40,1,99,i19_0.jpg,s,0,SK36,001,2019-10-16_10h06.46.723,MentalRotationFinal,3.1.2,60
d,1,2.048000097,1,0,100,93,1,99,i43_100_R.jpg,d,100,SK36,001,2019-10-16_10h06.46.723,MentalRotationFinal,3.1.2,60
d,1,2.429000139,1,0,100,89,1,99,i41_100_R.jpg,d,100,SK36,001,2019-10-16_10h06.46.723,MentalRotationFinal,3.1.2,60
s,1,1.077000141,1,0,100,84,1,99,i39_0.jpg,s,0,SK36,001,2019-10-16_10h06.46.723,MentalRotationFinal,3.1.2,60
s,1,1.638999939,1,0,100,97,1,99,i46_100.jpg,s,100,SK36,001,2019-10-16_10h06.46.723,MentalRotationFinal,3.1.2,60
s,1,1.08100009,1,0,100,9,1,99,i5_0.jpg,s,0,SK36,001,2019-10-16_10h06.46.723,MentalRotationFinal,3.1.2,60
d,1,2.484999895,1,0,100,78,1,99,i36_100_R.jpg,d,100,SK36,001,2019-10-16_10h06.46.723,MentalRotationFinal,3.1.2,60
d,1,5.434999943,1,0,100,59,1,99,i27_150_R.jpg,d,150,SK36,001,2019-10-16_10h06.46.723,MentalRotationFinal,3.1.2,60
d,1,2.090000153,1,0,100,27,1,99,i13_50_R.jpg,d,50,SK36,001,2019-10-16_10h06.46.723,MentalRotationFinal,3.1.2,60
s,1,1.758999825,1,0,100,54,1,99,i25_50.jpg,s,50,SK36,001,2019-10-16_10h06.46.723,MentalRotationFinal,3.1.2,60
s,1,3.349999905,1,0,100,63,1,99,i29_50.jpg,s,50,SK36,001,2019-10-16_10h06.46.723,MentalRotationFinal,3.1.2,60
s,1,2.194000006,1,0,100,83,1,99,i38_150.jpg,s,150,SK36,001,2019-10-16_10h06.46.723,MentalRotationFinal,3.1.2,60
s,1,4.542000055,1,0,100,81,1,99,i37_150.jpg,s,150,SK36,001,2019-10-16_10h06.46.723,MentalRotationFinal,3.1.2,60
s,1,1.714999914,1,0,100,8,1,99,i4_100.jpg,s,100,SK36,001,2019-10-16_10h06.46.723,MentalRotationFinal,3.1.2,60
s,1,2.253000021,1,0,100,2,1,99,i1_100.jpg,s,100,SK36,001,2019-10-16_10h06.46.723,MentalRotationFinal,3.1.2,60
s,1,1.944000006,1,0,100,43,1,99,i20_50.jpg,s,50,SK36,001,2019-10-16_10h06.46.723,MentalRotationFinal,3.1.2,60
s,1,4.539999962,1,0,100,92,1,99,i42_150.jpg,s,150,SK36,001,2019-10-16_10h06.46.723,MentalRotationFinal,3.1.2,60
s,1,2.335999966,1,0,100,65,1,99,i30_50.jpg,s,50,SK36,001,2019-10-16_10h06.46.723,MentalRotationFinal,3.1.2,60
s,1,0.834000111,1,0,100,94,1,99,i44_0.jpg,s,0,SK36,001,2019-10-16_10h06.46.723,MentalRotationFinal,3.1.2,60
d,1,1.980999947,1,0,100,69,1,99,i32_100_R.jpg,d,100,SK36,001,2019-10-16_10h06.46.723,MentalRotationFinal,3.1.2,60
s,1,2.305000067,1,0,100,36,1,99,i17_50.jpg,s,50,SK36,001,2019-10-16_10h06.46.723,MentalRotationFinal,3.1.2,60
