trialResp.keys,trialResp.corr,trialResp.rt,loop.thisRepN,loop.thisTrialN,loop.thisN,loop.thisIndex,loop.ran,loop.order,imagefile,corrAns,angle,participant,session,date,expName,psychopyVersion,frameRate
d,1,3.346999884,1,0,100,71,1,99,i33_100_R.jpg,d,100,j98,001,2019-10-16_10h06.41.102,MentalRotationFinal,3.1.2,60
s,1,5.157999992,1,0,100,75,1,99,i35_0.jpg,s,0,j98,001,2019-10-16_10h06.41.102,MentalRotationFinal,3.1.2,60
s,0,7.399999857,1,0,100,30,1,99,i14_50_R.jpg,d,50,j98,001,2019-10-16_10h06.41.102,MentalRotationFinal,3.1.2,60
s,1,8.227999926,1,0,100,98,1,99,i47_100.jpg,s,100,j98,001,2019-10-16_10h06.41.102,MentalRotationFinal,3.1.2,60
s,1,3.480000019,1,0,100,13,1,99,i6_100.jpg,s,100,j98,001,2019-10-16_10h06.41.102,MentalRotationFinal,3.1.2,60
d,1,2.097999811,1,0,100,19,1,99,i9_50_R.jpg,d,50,j98,001,2019-10-16_10h06.41.102,MentalRotationFinal,3.1.2,60
d,1,5.796999931,1,0,100,48,1,99,i22_150_R.jpg,d,150,j98,001,2019-10-16_10h06.41.102,MentalRotationFinal,3.1.2,60
s,1,2.746999979,1,0,100,60,1,99,i28_50.jpg,s,50,j98,001,2019-10-16_10h06.41.102,MentalRotationFinal,3.1.2,60
s,1,1.995999813,1,0,100,9,1,99,i5_0.jpg,s,0,j98,001,2019-10-16_10h06.41.102,MentalRotationFinal,3.1.2,60
s,1,1.517999887,1,0,100,0,1,99,i1_0.jpg,s,0,j98,001,2019-10-16_10h06.41.102,MentalRotationFinal,3.1.2,60
s,1,1.51699996,1,0,100,84,1,99,i39_0.jpg,s,0,j98,001,2019-10-16_10h06.41.102,MentalRotationFinal,3.1.2,60
d,1,3.098999977,1,0,100,80,1,99,i37_100_R.jpg,d,100,j98,001,2019-10-16_10h06.41.102,MentalRotationFinal,3.1.2,60
s,1,3.515999794,1,0,100,17,1,99,i8_100.jpg,s,100,j98,001,2019-10-16_10h06.41.102,MentalRotationFinal,3.1.2,60
s,1,3.644999981,1,0,100,74,1,99,i34_150.jpg,s,150,j98,001,2019-10-16_10h06.41.102,MentalRotationFinal,3.1.2,60
s,1,2.976000071,1,0,100,51,1,99,i24_50.jpg,s,50,j98,001,2019-10-16_10h06.41.102,MentalRotationFinal,3.1.2,60
s,1,2.731999874,1,0,100,15,1,99,i7_100.jpg,s,100,j98,001,2019-10-16_10h06.41.102,MentalRotationFinal,3.1.2,60
s,1,2.996999979,1,0,100,61,1,99,i28_150.jpg,s,150,j98,001,2019-10-16_10h06.41.102,MentalRotationFinal,3.1.2,60
d,1,4.765000105,1,0,100,96,1,99,i45_100_R.jpg,d,100,j98,001,2019-10-16_10h06.41.102,MentalRotationFinal,3.1.2,60
d,1,4.75999999,1,0,100,10,1,99,i5_50_R.jpg,d,50,j98,001,2019-10-16_10h06.41.102,MentalRotationFinal,3.1.2,60
s,1,5.095999956,1,0,100,68,1,99,i31_150.jpg,s,150,j98,001,2019-10-16_10h06.41.102,MentalRotationFinal,3.1.2,60
d,1,5.048000097,1,0,100,93,1,99,i43_100_R.jpg,d,100,j98,001,2019-10-16_10h06.41.102,MentalRotationFinal,3.1.2,60
s,1,4.031000137,1,0,100,58,1,99,i27_50.jpg,s,50,j98,001,2019-10-16_10h06.41.102,MentalRotationFinal,3.1.2,60
s,1,5.32799983,1,0,100,77,1,99,i35_150.jpg,s,150,j98,001,2019-10-16_10h06.41.102,MentalRotationFinal,3.1.2,60
d,1,2.011000156,1,0,100,14,1,99,i7_50_R.jpg,d,50,j98,001,2019-10-16_10h06.41.102,MentalRotationFinal,3.1.2,60
d,1,6.213000059,1,0,100,52,1,99,i24_150_R.jpg,d,150,j98,001,2019-10-16_10h06.41.102,MentalRotationFinal,3.1.2,60
s,1,2.226999998,1,0,100,26,1,99,i12_100.jpg,s,100,j98,001,2019-10-16_10h06.41.102,MentalRotationFinal,3.1.2,60
s,1,4.003000021,1,0,100,92,1,99,i42_150.jpg,s,150,j98,001,2019-10-16_10h06.41.102,MentalRotationFinal,3.1.2,60
s,1,4.75999999,1,0,100,45,1,99,i21_50.jpg,s,50,j98,001,2019-10-16_10h06.41.102,MentalRotationFinal,3.1.2,60
d,1,1.812999964,1,0,100,32,1,99,i15_50_R.jpg,d,50,j98,001,2019-10-16_10h06.41.102,MentalRotationFinal,3.1.2,60
s,1,2.031000137,1,0,100,53,1,99,i25_0.jpg,s,0,j98,001,2019-10-16_10h06.41.102,MentalRotationFinal,3.1.2,60
d,1,5.31400013,1,0,100,91,1,99,i42_100_R.jpg,d,100,j98,001,2019-10-16_10h06.41.102,MentalRotationFinal,3.1.2,60
s,1,1.427999973,1,0,100,62,1,99,i29_0.jpg,s,0,j98,001,2019-10-16_10h06.41.102,MentalRotationFinal,3.1.2,60
s,1,2.226999998,1,0,100,24,1,99,i11_100.jpg,s,100,j98,001,2019-10-16_10h06.41.102,MentalRotationFinal,3.1.2,60
d,1,7.980999947,1,0,100,28,1,99,i13_150_R.jpg,d,150,j98,001,2019-10-16_10h06.41.102,MentalRotationFinal,3.1.2,60
s,1,1.779999971,1,0,100,63,1,99,i29_50.jpg,s,50,j98,001,2019-10-16_10h06.41.102,MentalRotationFinal,3.1.2,60
d,1,4.312999964,1,0,100,89,1,99,i41_100_R.jpg,d,100,j98,001,2019-10-16_10h06.41.102,MentalRotationFinal,3.1.2,60
d,1,7.598999977,1,0,100,42,1,99,i19_150_R.jpg,d,150,j98,001,2019-10-16_10h06.41.102,MentalRotationFinal,3.1.2,60
d,0,6.09800005,1,0,100,97,1,99,i46_100.jpg,s,100,j98,001,2019-10-16_10h06.41.102,MentalRotationFinal,3.1.2,60
s,1,1.427000046,1,0,100,29,1,99,i14_0.jpg,s,0,j98,001,2019-10-16_10h06.41.102,MentalRotationFinal,3.1.2,60
d,1,9.095000029,1,0,100,33,1,99,i15_150_R.jpg,d,150,j98,001,2019-10-16_10h06.41.102,MentalRotationFinal,3.1.2,60
s,1,2.16899991,1,0,100,4,1,99,i2_100.jpg,s,100,j98,001,2019-10-16_10h06.41.102,MentalRotationFinal,3.1.2,60
d,1,3.420000076,1,0,100,7,1,99,i4_50_R.jpg,d,50,j98,001,2019-10-16_10h06.41.102,MentalRotationFinal,3.1.2,60
s,0,6.54399991,1,0,100,39,1,99,i18_150_R.jpg,d,150,j98,001,2019-10-16_10h06.41.102,MentalRotationFinal,3.1.2,60
s,1,3.364000082,1,0,100,6,1,99,i3_100.jpg,s,100,j98,001,2019-10-16_10h06.41.102,MentalRotationFinal,3.1.2,60
s,1,3.463999987,1,0,100,79,1,99,i36_150.jpg,s,150,j98,001,2019-10-16_10h06.41.102,MentalRotationFinal,3.1.2,60
s,1,1.446999788,1,0,100,18,1,99,i9_0.jpg,s,0,j98,001,2019-10-16_10h06.41.102,MentalRotationFinal,3.1.2,60
d,1,3.846999884,1,0,100,5,1,99,i3_50_R.jpg,d,50,j98,001,2019-10-16_10h06.41.102,MentalRotationFinal,3.1.2,60
s,1,1.960999966,1,0,100,41,1,99,i19_50.jpg,s,50,j98,001,2019-10-16_10h06.41.102,MentalRotationFinal,3.1.2,60
s,1,2.082000017,1,0,100,38,1,99,i18_50.jpg,s,50,j98,001,2019-10-16_10h06.41.102,MentalRotationFinal,3.1.2,60
s,1,5.960000038,1,0,100,66,1,99,i30_150.jpg,s,150,j98,001,2019-10-16_10h06.41.102,MentalRotationFinal,3.1.2,60
s,1,2.161000013,1,0,100,88,1,99,i40_150.jpg,s,150,j98,001,2019-10-16_10h06.41.102,MentalRotationFinal,3.1.2,60
d,1,6.820000172,1,0,100,12,1,99,i6_50_R.jpg,d,50,j98,001,2019-10-16_10h06.41.102,MentalRotationFinal,3.1.2,60
d,1,4.309999943,1,0,100,25,1,99,i12_50_R.jpg,d,50,j98,001,2019-10-16_10h06.41.102,MentalRotationFinal,3.1.2,60
d,1,7.795000076,1,0,100,31,1,99,i14_150_R.jpg,d,150,j98,001,2019-10-16_10h06.41.102,MentalRotationFinal,3.1.2,60
d,1,9.745000124,1,0,100,35,1,99,i16_150_R.jpg,d,150,j98,001,2019-10-16_10h06.41.102,MentalRotationFinal,3.1.2,60
s,1,1.878000021,1,0,100,64,1,99,i29_150.jpg,s,150,j98,001,2019-10-16_10h06.41.102,MentalRotationFinal,3.1.2,60
s,1,2.04399991,1,0,100,43,1,99,i20_50.jpg,s,50,j98,001,2019-10-16_10h06.41.102,MentalRotationFinal,3.1.2,60
s,1,3.870000124,1,0,100,90,1,99,i41_150.jpg,s,150,j98,001,2019-10-16_10h06.41.102,MentalRotationFinal,3.1.2,60
s,1,2.197000027,1,0,100,72,1,99,i33_150.jpg,s,150,j98,001,2019-10-16_10h06.41.102,MentalRotationFinal,3.1.2,60
d,1,3.378000021,1,0,100,23,1,99,i11_50_R.jpg,d,50,j98,001,2019-10-16_10h06.41.102,MentalRotationFinal,3.1.2,60
d,1,5.062999964,1,0,100,87,1,99,i40_100_R.jpg,d,100,j98,001,2019-10-16_10h06.41.102,MentalRotationFinal,3.1.2,60
s,1,2.148000002,1,0,100,81,1,99,i37_150.jpg,s,150,j98,001,2019-10-16_10h06.41.102,MentalRotationFinal,3.1.2,60
s,1,1.84499979,1,0,100,34,1,99,i16_50.jpg,s,50,j98,001,2019-10-16_10h06.41.102,MentalRotationFinal,3.1.2,60
d,0,3.048000097,1,0,100,54,1,99,i25_50.jpg,s,50,j98,001,2019-10-16_10h06.41.102,MentalRotationFinal,3.1.2,60
d,1,5.362999916,1,0,100,44,1,99,i20_150_R.jpg,d,150,j98,001,2019-10-16_10h06.41.102,MentalRotationFinal,3.1.2,60
s,0,8.515000105,1,0,100,82,1,99,i38_100_R.jpg,d,100,j98,001,2019-10-16_10h06.41.102,MentalRotationFinal,3.1.2,60
s,1,1.147000074,1,0,100,40,1,99,i19_0.jpg,s,0,j98,001,2019-10-16_10h06.41.102,MentalRotationFinal,3.1.2,60
d,1,2.648000002,1,0,100,59,1,99,i27_150_R.jpg,d,150,j98,001,2019-10-16_10h06.41.102,MentalRotationFinal,3.1.2,60
d,1,4.761000156,1,0,100,67,1,99,i31_100_R.jpg,d,100,j98,001,2019-10-16_10h06.41.102,MentalRotationFinal,3.1.2,60
s,0,3.845999956,1,0,100,95,1,99,i44_100_R.jpg,d,100,j98,001,2019-10-16_10h06.41.102,MentalRotationFinal,3.1.2,60
d,1,2.36500001,1,0,100,73,1,99,i34_100_R.jpg,d,100,j98,001,2019-10-16_10h06.41.102,MentalRotationFinal,3.1.2,60
s,1,3.246000051,1,0,100,2,1,99,i1_100.jpg,s,100,j98,001,2019-10-16_10h06.41.102,MentalRotationFinal,3.1.2,60
d,1,2.296999931,1,0,100,76,1,99,i35_100_R.jpg,d,100,j98,001,2019-10-16_10h06.41.102,MentalRotationFinal,3.1.2,60
s,1,3.032000065,1,0,100,86,1,99,i39_150.jpg,s,150,j98,001,2019-10-16_10h06.41.102,MentalRotationFinal,3.1.2,60
d,1,2.460999966,1,0,100,69,1,99,i32_100_R.jpg,d,100,j98,001,2019-10-16_10h06.41.102,MentalRotationFinal,3.1.2,60
s,1,3.513000011,1,0,100,56,1,99,i26_50.jpg,s,50,j98,001,2019-10-16_10h06.41.102,MentalRotationFinal,3.1.2,60
s,1,2.430000067,1,0,100,70,1,99,i32_150.jpg,s,150,j98,001,2019-10-16_10h06.41.102,MentalRotationFinal,3.1.2,60
d,1,6.927999973,1,0,100,46,1,99,i21_150_R.jpg,d,150,j98,001,2019-10-16_10h06.41.102,MentalRotationFinal,3.1.2,60
s,1,1.914000034,1,0,100,99,1,99,i48_100.jpg,s,100,j98,001,2019-10-16_10h06.41.102,MentalRotationFinal,3.1.2,60
s,1,3.931999922,1,0,100,22,1,99,i10_100.jpg,s,100,j98,001,2019-10-16_10h06.41.102,MentalRotationFinal,3.1.2,60
d,1,2.661000013,1,0,100,50,1,99,i23_150_R.jpg,d,150,j98,001,2019-10-16_10h06.41.102,MentalRotationFinal,3.1.2,60
d,1,4.947000027,1,0,100,78,1,99,i36_100_R.jpg,d,100,j98,001,2019-10-16_10h06.41.102,MentalRotationFinal,3.1.2,60
s,1,3.146999836,1,0,100,20,1,99,i9_100.jpg,s,100,j98,001,2019-10-16_10h06.41.102,MentalRotationFinal,3.1.2,60
d,1,5.779999971,1,0,100,37,1,99,i17_150_R.jpg,d,150,j98,001,2019-10-16_10h06.41.102,MentalRotationFinal,3.1.2,60
d,1,1.927000046,1,0,100,3,1,99,i2_50_R.jpg,d,50,j98,001,2019-10-16_10h06.41.102,MentalRotationFinal,3.1.2,60
s,1,2.692000151,1,0,100,49,1,99,i23_50.jpg,s,50,j98,001,2019-10-16_10h06.41.102,MentalRotationFinal,3.1.2,60
d,1,3.997000217,1,0,100,55,1,99,i25_150_R.jpg,d,150,j98,001,2019-10-16_10h06.41.102,MentalRotationFinal,3.1.2,60
s,1,2.463000059,1,0,100,36,1,99,i17_50.jpg,s,50,j98,001,2019-10-16_10h06.41.102,MentalRotationFinal,3.1.2,60
s,1,4.143999815,1,0,100,8,1,99,i4_100.jpg,s,100,j98,001,2019-10-16_10h06.41.102,MentalRotationFinal,3.1.2,60
d,1,3.796999931,1,0,100,1,1,99,i1_50_R.jpg,d,50,j98,001,2019-10-16_10h06.41.102,MentalRotationFinal,3.1.2,60
d,1,3.346999884,1,0,100,27,1,99,i13_50_R.jpg,d,50,j98,001,2019-10-16_10h06.41.102,MentalRotationFinal,3.1.2,60
s,1,1.08100009,1,0,100,94,1,99,i44_0.jpg,s,0,j98,001,2019-10-16_10h06.41.102,MentalRotationFinal,3.1.2,60
s,1,2.429000139,1,0,100,47,1,99,i22_50.jpg,s,50,j98,001,2019-10-16_10h06.41.102,MentalRotationFinal,3.1.2,60
d,1,2.378000021,1,0,100,16,1,99,i8_50_R.jpg,d,50,j98,001,2019-10-16_10h06.41.102,MentalRotationFinal,3.1.2,60
d,1,3.571000099,1,0,100,57,1,99,i26_150_R.jpg,d,150,j98,001,2019-10-16_10h06.41.102,MentalRotationFinal,3.1.2,60
d,0,5.112999916,1,0,100,11,1,99,i5_100.jpg,s,100,j98,001,2019-10-16_10h06.41.102,MentalRotationFinal,3.1.2,60
s,1,4.319000006,1,0,100,83,1,99,i38_150.jpg,s,150,j98,001,2019-10-16_10h06.41.102,MentalRotationFinal,3.1.2,60
d,1,2.252000093,1,0,100,85,1,99,i39_100_R.jpg,d,100,j98,001,2019-10-16_10h06.41.102,MentalRotationFinal,3.1.2,60
d,1,1.835999966,1,0,100,21,1,99,i10_50_R.jpg,d,50,j98,001,2019-10-16_10h06.41.102,MentalRotationFinal,3.1.2,60
s,1,7.618999958,1,0,100,65,1,99,i30_50.jpg,s,50,j98,001,2019-10-16_10h06.41.102,MentalRotationFinal,3.1.2,60
