trialResp.keys,trialResp.corr,trialResp.rt,loop.thisRepN,loop.thisTrialN,loop.thisN,loop.thisIndex,loop.ran,loop.order,imagefile,corrAns,angle,participant,session,date,expName,psychopyVersion,frameRate
s,1,7.104000092,1,0,100,99,1,99,i48_100.jpg,s,100,ml98,001,2019-10-16_10h06.48.933,MentalRotationFinal,3.1.2,60
d,1,7.457000017,1,0,100,48,1,99,i22_150_R.jpg,d,150,ml98,001,2019-10-16_10h06.48.933,MentalRotationFinal,3.1.2,60
s,1,8.25999999,1,0,100,15,1,99,i7_100.jpg,s,100,ml98,001,2019-10-16_10h06.48.933,MentalRotationFinal,3.1.2,60
s,1,8.842000008,1,0,100,63,1,99,i29_50.jpg,s,50,ml98,001,2019-10-16_10h06.48.933,MentalRotationFinal,3.1.2,60
d,1,8.291000128,1,0,100,33,1,99,i15_150_R.jpg,d,150,ml98,001,2019-10-16_10h06.48.933,MentalRotationFinal,3.1.2,60
s,1,5.976000071,1,0,100,20,1,99,i9_100.jpg,s,100,ml98,001,2019-10-16_10h06.48.933,MentalRotationFinal,3.1.2,60
s,1,8.890999794,1,0,100,90,1,99,i41_150.jpg,s,150,ml98,001,2019-10-16_10h06.48.933,MentalRotationFinal,3.1.2,60
s,1,8.326000214,1,0,100,70,1,99,i32_150.jpg,s,150,ml98,001,2019-10-16_10h06.48.933,MentalRotationFinal,3.1.2,60
s,1,19.5150001,1,0,100,66,1,99,i30_150.jpg,s,150,ml98,001,2019-10-16_10h06.48.933,MentalRotationFinal,3.1.2,60
s,1,16.37900019,1,0,100,54,1,99,i25_50.jpg,s,50,ml98,001,2019-10-16_10h06.48.933,MentalRotationFinal,3.1.2,60
s,1,27.40499997,1,0,100,79,1,99,i36_150.jpg,s,150,ml98,001,2019-10-16_10h06.48.933,MentalRotationFinal,3.1.2,60
s,1,7.425000191,1,0,100,9,1,99,i5_0.jpg,s,0,ml98,001,2019-10-16_10h06.48.933,MentalRotationFinal,3.1.2,60
s,1,10.41199994,1,0,100,61,1,99,i28_150.jpg,s,150,ml98,001,2019-10-16_10h06.48.933,MentalRotationFinal,3.1.2,60
d,0,9.9599998,1,0,100,13,1,99,i6_100.jpg,s,100,ml98,001,2019-10-16_10h06.48.933,MentalRotationFinal,3.1.2,60
s,1,30.35299993,1,0,100,88,1,99,i40_150.jpg,s,150,ml98,001,2019-10-16_10h06.48.933,MentalRotationFinal,3.1.2,60
d,1,10.76300001,1,0,100,23,1,99,i11_50_R.jpg,d,50,ml98,001,2019-10-16_10h06.48.933,MentalRotationFinal,3.1.2,60
d,1,14.79500008,1,0,100,69,1,99,i32_100_R.jpg,d,100,ml98,001,2019-10-16_10h06.48.933,MentalRotationFinal,3.1.2,60
s,1,4.725000143,1,0,100,84,1,99,i39_0.jpg,s,0,ml98,001,2019-10-16_10h06.48.933,MentalRotationFinal,3.1.2,60
d,1,5.625,1,0,100,19,1,99,i9_50_R.jpg,d,50,ml98,001,2019-10-16_10h06.48.933,MentalRotationFinal,3.1.2,60
d,1,10.52799988,1,0,100,73,1,99,i34_100_R.jpg,d,100,ml98,001,2019-10-16_10h06.48.933,MentalRotationFinal,3.1.2,60
s,1,14.22799993,1,0,100,92,1,99,i42_150.jpg,s,150,ml98,001,2019-10-16_10h06.48.933,MentalRotationFinal,3.1.2,60
d,1,6.374000072,1,0,100,46,1,99,i21_150_R.jpg,d,150,ml98,001,2019-10-16_10h06.48.933,MentalRotationFinal,3.1.2,60
s,1,6.958000183,1,0,100,4,1,99,i2_100.jpg,s,100,ml98,001,2019-10-16_10h06.48.933,MentalRotationFinal,3.1.2,60
s,1,3.508000135,1,0,100,18,1,99,i9_0.jpg,s,0,ml98,001,2019-10-16_10h06.48.933,MentalRotationFinal,3.1.2,60
d,1,8.756999969,1,0,100,71,1,99,i33_100_R.jpg,d,100,ml98,001,2019-10-16_10h06.48.933,MentalRotationFinal,3.1.2,60
d,1,4.77699995,1,0,100,32,1,99,i15_50_R.jpg,d,50,ml98,001,2019-10-16_10h06.48.933,MentalRotationFinal,3.1.2,60
s,1,20.91400003,1,0,100,81,1,99,i37_150.jpg,s,150,ml98,001,2019-10-16_10h06.48.933,MentalRotationFinal,3.1.2,60
s,1,12.94500017,1,0,100,68,1,99,i31_150.jpg,s,150,ml98,001,2019-10-16_10h06.48.933,MentalRotationFinal,3.1.2,60
d,1,5.875,1,0,100,5,1,99,i3_50_R.jpg,d,50,ml98,001,2019-10-16_10h06.48.933,MentalRotationFinal,3.1.2,60
s,1,4.876000166,1,0,100,47,1,99,i22_50.jpg,s,50,ml98,001,2019-10-16_10h06.48.933,MentalRotationFinal,3.1.2,60
s,1,5.809000015,1,0,100,97,1,99,i46_100.jpg,s,100,ml98,001,2019-10-16_10h06.48.933,MentalRotationFinal,3.1.2,60
d,1,11.42799997,1,0,100,85,1,99,i39_100_R.jpg,d,100,ml98,001,2019-10-16_10h06.48.933,MentalRotationFinal,3.1.2,60
s,1,4.487999916,1,0,100,51,1,99,i24_50.jpg,s,50,ml98,001,2019-10-16_10h06.48.933,MentalRotationFinal,3.1.2,60
s,1,6.059999943,1,0,100,24,1,99,i11_100.jpg,s,100,ml98,001,2019-10-16_10h06.48.933,MentalRotationFinal,3.1.2,60
s,1,6.625,1,0,100,17,1,99,i8_100.jpg,s,100,ml98,001,2019-10-16_10h06.48.933,MentalRotationFinal,3.1.2,60
d,1,4.157000065,1,0,100,3,1,99,i2_50_R.jpg,d,50,ml98,001,2019-10-16_10h06.48.933,MentalRotationFinal,3.1.2,60
s,1,14.23099995,1,0,100,98,1,99,i47_100.jpg,s,100,ml98,001,2019-10-16_10h06.48.933,MentalRotationFinal,3.1.2,60
s,1,2.855999947,1,0,100,45,1,99,i21_50.jpg,s,50,ml98,001,2019-10-16_10h06.48.933,MentalRotationFinal,3.1.2,60
s,1,5.009000063,1,0,100,8,1,99,i4_100.jpg,s,100,ml98,001,2019-10-16_10h06.48.933,MentalRotationFinal,3.1.2,60
s,1,3.424999952,1,0,100,53,1,99,i25_0.jpg,s,0,ml98,001,2019-10-16_10h06.48.933,MentalRotationFinal,3.1.2,60
d,1,2.55700016,1,0,100,52,1,99,i24_150_R.jpg,d,150,ml98,001,2019-10-16_10h06.48.933,MentalRotationFinal,3.1.2,60
d,1,6.677000046,1,0,100,10,1,99,i5_50_R.jpg,d,50,ml98,001,2019-10-16_10h06.48.933,MentalRotationFinal,3.1.2,60
s,1,7.375999928,1,0,100,64,1,99,i29_150.jpg,s,150,ml98,001,2019-10-16_10h06.48.933,MentalRotationFinal,3.1.2,60
d,1,3.47300005,1,0,100,25,1,99,i12_50_R.jpg,d,50,ml98,001,2019-10-16_10h06.48.933,MentalRotationFinal,3.1.2,60
s,1,8.844000101,1,0,100,77,1,99,i35_150.jpg,s,150,ml98,001,2019-10-16_10h06.48.933,MentalRotationFinal,3.1.2,60
s,1,2.572999954,1,0,100,94,1,99,i44_0.jpg,s,0,ml98,001,2019-10-16_10h06.48.933,MentalRotationFinal,3.1.2,60
d,1,12.24700022,1,0,100,31,1,99,i14_150_R.jpg,d,150,ml98,001,2019-10-16_10h06.48.933,MentalRotationFinal,3.1.2,60
s,1,11.47799993,1,0,100,72,1,99,i33_150.jpg,s,150,ml98,001,2019-10-16_10h06.48.933,MentalRotationFinal,3.1.2,60
d,1,6.458999872,1,0,100,80,1,99,i37_100_R.jpg,d,100,ml98,001,2019-10-16_10h06.48.933,MentalRotationFinal,3.1.2,60
s,1,2.041000128,1,0,100,0,1,99,i1_0.jpg,s,0,ml98,001,2019-10-16_10h06.48.933,MentalRotationFinal,3.1.2,60
s,1,8.142999887,1,0,100,22,1,99,i10_100.jpg,s,100,ml98,001,2019-10-16_10h06.48.933,MentalRotationFinal,3.1.2,60
d,1,4.207000017,1,0,100,16,1,99,i8_50_R.jpg,d,50,ml98,001,2019-10-16_10h06.48.933,MentalRotationFinal,3.1.2,60
d,1,4.09100008,1,0,100,21,1,99,i10_50_R.jpg,d,50,ml98,001,2019-10-16_10h06.48.933,MentalRotationFinal,3.1.2,60
d,1,4.042000055,1,0,100,39,1,99,i18_150_R.jpg,d,150,ml98,001,2019-10-16_10h06.48.933,MentalRotationFinal,3.1.2,60
s,1,6.575000048,1,0,100,36,1,99,i17_50.jpg,s,50,ml98,001,2019-10-16_10h06.48.933,MentalRotationFinal,3.1.2,60
s,1,2.989000082,1,0,100,2,1,99,i1_100.jpg,s,100,ml98,001,2019-10-16_10h06.48.933,MentalRotationFinal,3.1.2,60
d,1,10.32700014,1,0,100,82,1,99,i38_100_R.jpg,d,100,ml98,001,2019-10-16_10h06.48.933,MentalRotationFinal,3.1.2,60
d,1,5.559000015,1,0,100,95,1,99,i44_100_R.jpg,d,100,ml98,001,2019-10-16_10h06.48.933,MentalRotationFinal,3.1.2,60
d,1,6.506999969,1,0,100,50,1,99,i23_150_R.jpg,d,150,ml98,001,2019-10-16_10h06.48.933,MentalRotationFinal,3.1.2,60
s,1,1.973999977,1,0,100,40,1,99,i19_0.jpg,s,0,ml98,001,2019-10-16_10h06.48.933,MentalRotationFinal,3.1.2,60
d,1,2.856000185,1,0,100,91,1,99,i42_100_R.jpg,d,100,ml98,001,2019-10-16_10h06.48.933,MentalRotationFinal,3.1.2,60
d,1,4.808000088,1,0,100,78,1,99,i36_100_R.jpg,d,100,ml98,001,2019-10-16_10h06.48.933,MentalRotationFinal,3.1.2,60
s,1,3.340999842,1,0,100,74,1,99,i34_150.jpg,s,150,ml98,001,2019-10-16_10h06.48.933,MentalRotationFinal,3.1.2,60
d,1,6.190999985,1,0,100,89,1,99,i41_100_R.jpg,d,100,ml98,001,2019-10-16_10h06.48.933,MentalRotationFinal,3.1.2,60
d,1,6.758000135,1,0,100,76,1,99,i35_100_R.jpg,d,100,ml98,001,2019-10-16_10h06.48.933,MentalRotationFinal,3.1.2,60
s,1,4.024000168,1,0,100,49,1,99,i23_50.jpg,s,50,ml98,001,2019-10-16_10h06.48.933,MentalRotationFinal,3.1.2,60
d,1,4.039000034,1,0,100,37,1,99,i17_150_R.jpg,d,150,ml98,001,2019-10-16_10h06.48.933,MentalRotationFinal,3.1.2,60
d,1,4.457999945,1,0,100,87,1,99,i40_100_R.jpg,d,100,ml98,001,2019-10-16_10h06.48.933,MentalRotationFinal,3.1.2,60
s,1,2.538000107,1,0,100,75,1,99,i35_0.jpg,s,0,ml98,001,2019-10-16_10h06.48.933,MentalRotationFinal,3.1.2,60
s,1,4.073999882,1,0,100,38,1,99,i18_50.jpg,s,50,ml98,001,2019-10-16_10h06.48.933,MentalRotationFinal,3.1.2,60
s,1,5.257000208,1,0,100,65,1,99,i30_50.jpg,s,50,ml98,001,2019-10-16_10h06.48.933,MentalRotationFinal,3.1.2,60
d,1,12.46200013,1,0,100,57,1,99,i26_150_R.jpg,d,150,ml98,001,2019-10-16_10h06.48.933,MentalRotationFinal,3.1.2,60
d,1,3.407000065,1,0,100,27,1,99,i13_50_R.jpg,d,50,ml98,001,2019-10-16_10h06.48.933,MentalRotationFinal,3.1.2,60
s,1,3.808000088,1,0,100,11,1,99,i5_100.jpg,s,100,ml98,001,2019-10-16_10h06.48.933,MentalRotationFinal,3.1.2,60
s,1,4.275000095,1,0,100,60,1,99,i28_50.jpg,s,50,ml98,001,2019-10-16_10h06.48.933,MentalRotationFinal,3.1.2,60
d,1,2.889999866,1,0,100,12,1,99,i6_50_R.jpg,d,50,ml98,001,2019-10-16_10h06.48.933,MentalRotationFinal,3.1.2,60
d,1,3.891000032,1,0,100,96,1,99,i45_100_R.jpg,d,100,ml98,001,2019-10-16_10h06.48.933,MentalRotationFinal,3.1.2,60
s,1,4.457999945,1,0,100,6,1,99,i3_100.jpg,s,100,ml98,001,2019-10-16_10h06.48.933,MentalRotationFinal,3.1.2,60
s,1,2.139999866,1,0,100,62,1,99,i29_0.jpg,s,0,ml98,001,2019-10-16_10h06.48.933,MentalRotationFinal,3.1.2,60
s,1,3.690000057,1,0,100,56,1,99,i26_50.jpg,s,50,ml98,001,2019-10-16_10h06.48.933,MentalRotationFinal,3.1.2,60
s,1,7.325000048,1,0,100,83,1,99,i38_150.jpg,s,150,ml98,001,2019-10-16_10h06.48.933,MentalRotationFinal,3.1.2,60
s,1,3.207000017,1,0,100,26,1,99,i12_100.jpg,s,100,ml98,001,2019-10-16_10h06.48.933,MentalRotationFinal,3.1.2,60
d,1,3.507999897,1,0,100,67,1,99,i31_100_R.jpg,d,100,ml98,001,2019-10-16_10h06.48.933,MentalRotationFinal,3.1.2,60
d,1,3.957000017,1,0,100,35,1,99,i16_150_R.jpg,d,150,ml98,001,2019-10-16_10h06.48.933,MentalRotationFinal,3.1.2,60
d,1,12.00999999,1,0,100,44,1,99,i20_150_R.jpg,d,150,ml98,001,2019-10-16_10h06.48.933,MentalRotationFinal,3.1.2,60
d,1,10.21300006,1,0,100,55,1,99,i25_150_R.jpg,d,150,ml98,001,2019-10-16_10h06.48.933,MentalRotationFinal,3.1.2,60
d,1,6.742000103,1,0,100,30,1,99,i14_50_R.jpg,d,50,ml98,001,2019-10-16_10h06.48.933,MentalRotationFinal,3.1.2,60
d,1,5.859000206,1,0,100,7,1,99,i4_50_R.jpg,d,50,ml98,001,2019-10-16_10h06.48.933,MentalRotationFinal,3.1.2,60
s,1,2.322000027,1,0,100,41,1,99,i19_50.jpg,s,50,ml98,001,2019-10-16_10h06.48.933,MentalRotationFinal,3.1.2,60
d,1,10.43000007,1,0,100,59,1,99,i27_150_R.jpg,d,150,ml98,001,2019-10-16_10h06.48.933,MentalRotationFinal,3.1.2,60
s,1,2.223999977,1,0,100,29,1,99,i14_0.jpg,s,0,ml98,001,2019-10-16_10h06.48.933,MentalRotationFinal,3.1.2,60
d,1,3.274000168,1,0,100,1,1,99,i1_50_R.jpg,d,50,ml98,001,2019-10-16_10h06.48.933,MentalRotationFinal,3.1.2,60
d,1,6.190999985,1,0,100,42,1,99,i19_150_R.jpg,d,150,ml98,001,2019-10-16_10h06.48.933,MentalRotationFinal,3.1.2,60
s,1,4.256999969,1,0,100,43,1,99,i20_50.jpg,s,50,ml98,001,2019-10-16_10h06.48.933,MentalRotationFinal,3.1.2,60
d,1,2.672999859,1,0,100,14,1,99,i7_50_R.jpg,d,50,ml98,001,2019-10-16_10h06.48.933,MentalRotationFinal,3.1.2,60
d,0,3.823999882,1,0,100,86,1,99,i39_150.jpg,s,150,ml98,001,2019-10-16_10h06.48.933,MentalRotationFinal,3.1.2,60
s,1,3.222999811,1,0,100,58,1,99,i27_50.jpg,s,50,ml98,001,2019-10-16_10h06.48.933,MentalRotationFinal,3.1.2,60
d,1,6.242000103,1,0,100,93,1,99,i43_100_R.jpg,d,100,ml98,001,2019-10-16_10h06.48.933,MentalRotationFinal,3.1.2,60
s,1,1.972000122,1,0,100,34,1,99,i16_50.jpg,s,50,ml98,001,2019-10-16_10h06.48.933,MentalRotationFinal,3.1.2,60
d,1,4.959000111,1,0,100,28,1,99,i13_150_R.jpg,d,150,ml98,001,2019-10-16_10h06.48.933,MentalRotationFinal,3.1.2,60
