trialResp.keys,trialResp.corr,trialResp.rt,loop.thisRepN,loop.thisTrialN,loop.thisN,loop.thisIndex,loop.ran,loop.order,imagefile,corrAns,angle,participant,session,date,expName,psychopyVersion,frameRate
s,1,12.204,1,0,100,2,1,99,i1_100.jpg,s,100,JL29,001,2019-10-16_10h06.52.100,MentalRotationFinal,3.1.2,60
d,1,7.870999813,1,0,100,7,1,99,i4_50_R.jpg,d,50,JL29,001,2019-10-16_10h06.52.100,MentalRotationFinal,3.1.2,60
s,1,7.706999779,1,0,100,74,1,99,i34_150.jpg,s,150,JL29,001,2019-10-16_10h06.52.100,MentalRotationFinal,3.1.2,60
s,1,9.525000095,1,0,100,60,1,99,i28_50.jpg,s,50,JL29,001,2019-10-16_10h06.52.100,MentalRotationFinal,3.1.2,60
s,1,10.19300008,1,0,100,6,1,99,i3_100.jpg,s,100,JL29,001,2019-10-16_10h06.52.100,MentalRotationFinal,3.1.2,60
s,1,8.338999987,1,0,100,63,1,99,i29_50.jpg,s,50,JL29,001,2019-10-16_10h06.52.100,MentalRotationFinal,3.1.2,60
d,1,5.789999962,1,0,100,55,1,99,i25_150_R.jpg,d,150,JL29,001,2019-10-16_10h06.52.100,MentalRotationFinal,3.1.2,60
s,1,6.721000195,1,0,100,38,1,99,i18_50.jpg,s,50,JL29,001,2019-10-16_10h06.52.100,MentalRotationFinal,3.1.2,60
s,1,5.905999899,1,0,100,84,1,99,i39_0.jpg,s,0,JL29,001,2019-10-16_10h06.52.100,MentalRotationFinal,3.1.2,60
d,1,3.954999924,1,0,100,5,1,99,i3_50_R.jpg,d,50,JL29,001,2019-10-16_10h06.52.100,MentalRotationFinal,3.1.2,60
s,1,5.138000011,1,0,100,34,1,99,i16_50.jpg,s,50,JL29,001,2019-10-16_10h06.52.100,MentalRotationFinal,3.1.2,60
s,1,7.525000095,1,0,100,97,1,99,i46_100.jpg,s,100,JL29,001,2019-10-16_10h06.52.100,MentalRotationFinal,3.1.2,60
s,1,10.50900006,1,0,100,17,1,99,i8_100.jpg,s,100,JL29,001,2019-10-16_10h06.52.100,MentalRotationFinal,3.1.2,60
s,1,6.773999929,1,0,100,47,1,99,i22_50.jpg,s,50,JL29,001,2019-10-16_10h06.52.100,MentalRotationFinal,3.1.2,60
d,1,5.472000122,1,0,100,19,1,99,i9_50_R.jpg,d,50,JL29,001,2019-10-16_10h06.52.100,MentalRotationFinal,3.1.2,60
s,1,6.440999985,1,0,100,94,1,99,i44_0.jpg,s,0,JL29,001,2019-10-16_10h06.52.100,MentalRotationFinal,3.1.2,60
s,1,13.56399989,1,0,100,99,1,99,i48_100.jpg,s,100,JL29,001,2019-10-16_10h06.52.100,MentalRotationFinal,3.1.2,60
d,1,8.171999931,1,0,100,37,1,99,i17_150_R.jpg,d,150,JL29,001,2019-10-16_10h06.52.100,MentalRotationFinal,3.1.2,60
d,1,11.94199991,1,0,100,76,1,99,i35_100_R.jpg,d,100,JL29,001,2019-10-16_10h06.52.100,MentalRotationFinal,3.1.2,60
s,1,2.470999956,1,0,100,75,1,99,i35_0.jpg,s,0,JL29,001,2019-10-16_10h06.52.100,MentalRotationFinal,3.1.2,60
s,1,10.37400007,1,0,100,54,1,99,i25_50.jpg,s,50,JL29,001,2019-10-16_10h06.52.100,MentalRotationFinal,3.1.2,60
s,1,5.708999872,1,0,100,98,1,99,i47_100.jpg,s,100,JL29,001,2019-10-16_10h06.52.100,MentalRotationFinal,3.1.2,60
d,1,7.523000002,1,0,100,67,1,99,i31_100_R.jpg,d,100,JL29,001,2019-10-16_10h06.52.100,MentalRotationFinal,3.1.2,60
s,1,6.907000065,1,0,100,53,1,99,i25_0.jpg,s,0,JL29,001,2019-10-16_10h06.52.100,MentalRotationFinal,3.1.2,60
s,1,3.854000092,1,0,100,20,1,99,i9_100.jpg,s,100,JL29,001,2019-10-16_10h06.52.100,MentalRotationFinal,3.1.2,60
s,1,8.174000025,1,0,100,45,1,99,i21_50.jpg,s,50,JL29,001,2019-10-16_10h06.52.100,MentalRotationFinal,3.1.2,60
s,1,10.77499986,1,0,100,58,1,99,i27_50.jpg,s,50,JL29,001,2019-10-16_10h06.52.100,MentalRotationFinal,3.1.2,60
d,1,15.31100011,1,0,100,96,1,99,i45_100_R.jpg,d,100,JL29,001,2019-10-16_10h06.52.100,MentalRotationFinal,3.1.2,60
s,1,8.523999929,1,0,100,79,1,99,i36_150.jpg,s,150,JL29,001,2019-10-16_10h06.52.100,MentalRotationFinal,3.1.2,60
d,1,5.272000074,1,0,100,48,1,99,i22_150_R.jpg,d,150,JL29,001,2019-10-16_10h06.52.100,MentalRotationFinal,3.1.2,60
d,1,3.740999937,1,0,100,21,1,99,i10_50_R.jpg,d,50,JL29,001,2019-10-16_10h06.52.100,MentalRotationFinal,3.1.2,60
d,1,5.756000042,1,0,100,16,1,99,i8_50_R.jpg,d,50,JL29,001,2019-10-16_10h06.52.100,MentalRotationFinal,3.1.2,60
d,1,7.508000135,1,0,100,71,1,99,i33_100_R.jpg,d,100,JL29,001,2019-10-16_10h06.52.100,MentalRotationFinal,3.1.2,60
d,1,3.955999851,1,0,100,27,1,99,i13_50_R.jpg,d,50,JL29,001,2019-10-16_10h06.52.100,MentalRotationFinal,3.1.2,60
d,1,11.07500005,1,0,100,23,1,99,i11_50_R.jpg,d,50,JL29,001,2019-10-16_10h06.52.100,MentalRotationFinal,3.1.2,60
s,1,2.338000059,1,0,100,29,1,99,i14_0.jpg,s,0,JL29,001,2019-10-16_10h06.52.100,MentalRotationFinal,3.1.2,60
d,1,9.424000025,1,0,100,87,1,99,i40_100_R.jpg,d,100,JL29,001,2019-10-16_10h06.52.100,MentalRotationFinal,3.1.2,60
s,1,6.60800004,1,0,100,65,1,99,i30_50.jpg,s,50,JL29,001,2019-10-16_10h06.52.100,MentalRotationFinal,3.1.2,60
d,1,9.656999826,1,0,100,59,1,99,i27_150_R.jpg,d,150,JL29,001,2019-10-16_10h06.52.100,MentalRotationFinal,3.1.2,60
s,1,12.64199996,1,0,100,8,1,99,i4_100.jpg,s,100,JL29,001,2019-10-16_10h06.52.100,MentalRotationFinal,3.1.2,60
d,1,9.659999847,1,0,100,28,1,99,i13_150_R.jpg,d,150,JL29,001,2019-10-16_10h06.52.100,MentalRotationFinal,3.1.2,60
s,1,11.36500001,1,0,100,24,1,99,i11_100.jpg,s,100,JL29,001,2019-10-16_10h06.52.100,MentalRotationFinal,3.1.2,60
d,1,6.667000055,1,0,100,80,1,99,i37_100_R.jpg,d,100,JL29,001,2019-10-16_10h06.52.100,MentalRotationFinal,3.1.2,60
s,1,2.087000132,1,0,100,9,1,99,i5_0.jpg,s,0,JL29,001,2019-10-16_10h06.52.100,MentalRotationFinal,3.1.2,60
d,1,5.18900013,1,0,100,14,1,99,i7_50_R.jpg,d,50,JL29,001,2019-10-16_10h06.52.100,MentalRotationFinal,3.1.2,60
s,1,6.122999907,1,0,100,90,1,99,i41_150.jpg,s,150,JL29,001,2019-10-16_10h06.52.100,MentalRotationFinal,3.1.2,60
d,0,12.62700009,1,0,100,15,1,99,i7_100.jpg,s,100,JL29,001,2019-10-16_10h06.52.100,MentalRotationFinal,3.1.2,60
s,1,5.353000164,1,0,100,64,1,99,i29_150.jpg,s,150,JL29,001,2019-10-16_10h06.52.100,MentalRotationFinal,3.1.2,60
d,1,4.891000032,1,0,100,69,1,99,i32_100_R.jpg,d,100,JL29,001,2019-10-16_10h06.52.100,MentalRotationFinal,3.1.2,60
d,1,14.12700009,1,0,100,1,1,99,i1_50_R.jpg,d,50,JL29,001,2019-10-16_10h06.52.100,MentalRotationFinal,3.1.2,60
d,1,11.3599999,1,0,100,33,1,99,i15_150_R.jpg,d,150,JL29,001,2019-10-16_10h06.52.100,MentalRotationFinal,3.1.2,60
s,1,7.325000048,1,0,100,66,1,99,i30_150.jpg,s,150,JL29,001,2019-10-16_10h06.52.100,MentalRotationFinal,3.1.2,60
s,1,3.337999821,1,0,100,41,1,99,i19_50.jpg,s,50,JL29,001,2019-10-16_10h06.52.100,MentalRotationFinal,3.1.2,60
d,1,4.605999947,1,0,100,85,1,99,i39_100_R.jpg,d,100,JL29,001,2019-10-16_10h06.52.100,MentalRotationFinal,3.1.2,60
d,1,5.141000032,1,0,100,31,1,99,i14_150_R.jpg,d,150,JL29,001,2019-10-16_10h06.52.100,MentalRotationFinal,3.1.2,60
d,1,6.976999998,1,0,100,44,1,99,i20_150_R.jpg,d,150,JL29,001,2019-10-16_10h06.52.100,MentalRotationFinal,3.1.2,60
d,1,10.05599999,1,0,100,57,1,99,i26_150_R.jpg,d,150,JL29,001,2019-10-16_10h06.52.100,MentalRotationFinal,3.1.2,60
d,1,9.492000103,1,0,100,30,1,99,i14_50_R.jpg,d,50,JL29,001,2019-10-16_10h06.52.100,MentalRotationFinal,3.1.2,60
s,1,3.991000175,1,0,100,36,1,99,i17_50.jpg,s,50,JL29,001,2019-10-16_10h06.52.100,MentalRotationFinal,3.1.2,60
s,1,4.819999933,1,0,100,22,1,99,i10_100.jpg,s,100,JL29,001,2019-10-16_10h06.52.100,MentalRotationFinal,3.1.2,60
d,1,11.45900011,1,0,100,32,1,99,i15_50_R.jpg,d,50,JL29,001,2019-10-16_10h06.52.100,MentalRotationFinal,3.1.2,60
s,1,6.424000025,1,0,100,70,1,99,i32_150.jpg,s,150,JL29,001,2019-10-16_10h06.52.100,MentalRotationFinal,3.1.2,60
s,1,1.302000046,1,0,100,40,1,99,i19_0.jpg,s,0,JL29,001,2019-10-16_10h06.52.100,MentalRotationFinal,3.1.2,60
s,1,2.654999971,1,0,100,51,1,99,i24_50.jpg,s,50,JL29,001,2019-10-16_10h06.52.100,MentalRotationFinal,3.1.2,60
s,1,4.289999962,1,0,100,61,1,99,i28_150.jpg,s,150,JL29,001,2019-10-16_10h06.52.100,MentalRotationFinal,3.1.2,60
s,1,7.504999876,1,0,100,13,1,99,i6_100.jpg,s,100,JL29,001,2019-10-16_10h06.52.100,MentalRotationFinal,3.1.2,60
s,1,11.75999999,1,0,100,88,1,99,i40_150.jpg,s,150,JL29,001,2019-10-16_10h06.52.100,MentalRotationFinal,3.1.2,60
s,1,7.657999992,1,0,100,68,1,99,i31_150.jpg,s,150,JL29,001,2019-10-16_10h06.52.100,MentalRotationFinal,3.1.2,60
s,1,9.392999887,1,0,100,72,1,99,i33_150.jpg,s,150,JL29,001,2019-10-16_10h06.52.100,MentalRotationFinal,3.1.2,60
d,1,12.32399988,1,0,100,10,1,99,i5_50_R.jpg,d,50,JL29,001,2019-10-16_10h06.52.100,MentalRotationFinal,3.1.2,60
s,1,4.672999859,1,0,100,92,1,99,i42_150.jpg,s,150,JL29,001,2019-10-16_10h06.52.100,MentalRotationFinal,3.1.2,60
d,1,10.29299998,1,0,100,78,1,99,i36_100_R.jpg,d,100,JL29,001,2019-10-16_10h06.52.100,MentalRotationFinal,3.1.2,60
d,0,8.924000025,1,0,100,86,1,99,i39_150.jpg,s,150,JL29,001,2019-10-16_10h06.52.100,MentalRotationFinal,3.1.2,60
d,1,3.671999931,1,0,100,42,1,99,i19_150_R.jpg,d,150,JL29,001,2019-10-16_10h06.52.100,MentalRotationFinal,3.1.2,60
s,1,1.770999908,1,0,100,49,1,99,i23_50.jpg,s,50,JL29,001,2019-10-16_10h06.52.100,MentalRotationFinal,3.1.2,60
d,1,4.437000036,1,0,100,89,1,99,i41_100_R.jpg,d,100,JL29,001,2019-10-16_10h06.52.100,MentalRotationFinal,3.1.2,60
d,1,9.575000048,1,0,100,39,1,99,i18_150_R.jpg,d,150,JL29,001,2019-10-16_10h06.52.100,MentalRotationFinal,3.1.2,60
s,1,4.988999844,1,0,100,11,1,99,i5_100.jpg,s,100,JL29,001,2019-10-16_10h06.52.100,MentalRotationFinal,3.1.2,60
d,1,10.8579998,1,0,100,93,1,99,i43_100_R.jpg,d,100,JL29,001,2019-10-16_10h06.52.100,MentalRotationFinal,3.1.2,60
d,1,9.440999985,1,0,100,95,1,99,i44_100_R.jpg,d,100,JL29,001,2019-10-16_10h06.52.100,MentalRotationFinal,3.1.2,60
d,1,8.208000183,1,0,100,46,1,99,i21_150_R.jpg,d,150,JL29,001,2019-10-16_10h06.52.100,MentalRotationFinal,3.1.2,60
s,1,5.190999985,1,0,100,77,1,99,i35_150.jpg,s,150,JL29,001,2019-10-16_10h06.52.100,MentalRotationFinal,3.1.2,60
d,1,3.601999998,1,0,100,35,1,99,i16_150_R.jpg,d,150,JL29,001,2019-10-16_10h06.52.100,MentalRotationFinal,3.1.2,60
s,1,2.421999931,1,0,100,43,1,99,i20_50.jpg,s,50,JL29,001,2019-10-16_10h06.52.100,MentalRotationFinal,3.1.2,60
s,1,1.355999947,1,0,100,0,1,99,i1_0.jpg,s,0,JL29,001,2019-10-16_10h06.52.100,MentalRotationFinal,3.1.2,60
s,1,1.019999981,1,0,100,18,1,99,i9_0.jpg,s,0,JL29,001,2019-10-16_10h06.52.100,MentalRotationFinal,3.1.2,60
d,1,7.723999977,1,0,100,12,1,99,i6_50_R.jpg,d,50,JL29,001,2019-10-16_10h06.52.100,MentalRotationFinal,3.1.2,60
d,1,5.505000114,1,0,100,91,1,99,i42_100_R.jpg,d,100,JL29,001,2019-10-16_10h06.52.100,MentalRotationFinal,3.1.2,60
d,1,4.090999842,1,0,100,3,1,99,i2_50_R.jpg,d,50,JL29,001,2019-10-16_10h06.52.100,MentalRotationFinal,3.1.2,60
s,1,3.805000067,1,0,100,26,1,99,i12_100.jpg,s,100,JL29,001,2019-10-16_10h06.52.100,MentalRotationFinal,3.1.2,60
d,1,6.355999947,1,0,100,52,1,99,i24_150_R.jpg,d,150,JL29,001,2019-10-16_10h06.52.100,MentalRotationFinal,3.1.2,60
s,1,2.420000076,1,0,100,4,1,99,i2_100.jpg,s,100,JL29,001,2019-10-16_10h06.52.100,MentalRotationFinal,3.1.2,60
s,1,2.548000097,1,0,100,83,1,99,i38_150.jpg,s,150,JL29,001,2019-10-16_10h06.52.100,MentalRotationFinal,3.1.2,60
s,1,1.638000011,1,0,100,62,1,99,i29_0.jpg,s,0,JL29,001,2019-10-16_10h06.52.100,MentalRotationFinal,3.1.2,60
d,1,4.190000057,1,0,100,82,1,99,i38_100_R.jpg,d,100,JL29,001,2019-10-16_10h06.52.100,MentalRotationFinal,3.1.2,60
s,1,6.171999931,1,0,100,81,1,99,i37_150.jpg,s,150,JL29,001,2019-10-16_10h06.52.100,MentalRotationFinal,3.1.2,60
d,1,4.054999828,1,0,100,25,1,99,i12_50_R.jpg,d,50,JL29,001,2019-10-16_10h06.52.100,MentalRotationFinal,3.1.2,60
d,1,6.188999891,1,0,100,50,1,99,i23_150_R.jpg,d,150,JL29,001,2019-10-16_10h06.52.100,MentalRotationFinal,3.1.2,60
d,1,4.506000042,1,0,100,73,1,99,i34_100_R.jpg,d,100,JL29,001,2019-10-16_10h06.52.100,MentalRotationFinal,3.1.2,60
s,1,6.592000008,1,0,100,56,1,99,i26_50.jpg,s,50,JL29,001,2019-10-16_10h06.52.100,MentalRotationFinal,3.1.2,60
