trialResp.keys,trialResp.corr,trialResp.rt,loop.thisRepN,loop.thisTrialN,loop.thisN,loop.thisIndex,loop.ran,loop.order,imagefile,corrAns,angle,participant,session,date,expName,psychopyVersion,frameRate
s,1,2.928999901,1,0,100,56,1,99,i26_50.jpg,s,50,cr2532,001,2020-04-14_10h13.32.078,MentalRotationFinal,3.1.2,60
s,0,1.448999882,1,0,100,23,1,99,i11_50_R.jpg,d,50,cr2532,001,2020-04-14_10h13.32.078,MentalRotationFinal,3.1.2,60
s,1,1.230000019,1,0,100,0,1,99,i1_0.jpg,s,0,cr2532,001,2020-04-14_10h13.32.078,MentalRotationFinal,3.1.2,60
s,1,1.400000095,1,0,100,65,1,99,i30_50.jpg,s,50,cr2532,001,2020-04-14_10h13.32.078,MentalRotationFinal,3.1.2,60
s,0,1.332999945,1,0,100,69,1,99,i32_100_R.jpg,d,100,cr2532,001,2020-04-14_10h13.32.078,MentalRotationFinal,3.1.2,60
s,0,1.230999947,1,0,100,33,1,99,i15_150_R.jpg,d,150,cr2532,001,2020-04-14_10h13.32.078,MentalRotationFinal,3.1.2,60
s,1,0.828000069,1,0,100,45,1,99,i21_50.jpg,s,50,cr2532,001,2020-04-14_10h13.32.078,MentalRotationFinal,3.1.2,60
s,0,0.715999842,1,0,100,87,1,99,i40_100_R.jpg,d,100,cr2532,001,2020-04-14_10h13.32.078,MentalRotationFinal,3.1.2,60
s,0,1.046999931,1,0,100,10,1,99,i5_50_R.jpg,d,50,cr2532,001,2020-04-14_10h13.32.078,MentalRotationFinal,3.1.2,60
s,1,0.717000008,1,0,100,86,1,99,i39_150.jpg,s,150,cr2532,001,2020-04-14_10h13.32.078,MentalRotationFinal,3.1.2,60
s,1,0.694000006,1,0,100,77,1,99,i35_150.jpg,s,150,cr2532,001,2020-04-14_10h13.32.078,MentalRotationFinal,3.1.2,60
s,0,0.61500001,1,0,100,44,1,99,i20_150_R.jpg,d,150,cr2532,001,2020-04-14_10h13.32.078,MentalRotationFinal,3.1.2,60
s,0,0.631999969,1,0,100,31,1,99,i14_150_R.jpg,d,150,cr2532,001,2020-04-14_10h13.32.078,MentalRotationFinal,3.1.2,60
s,0,0.710999966,1,0,100,52,1,99,i24_150_R.jpg,d,150,cr2532,001,2020-04-14_10h13.32.078,MentalRotationFinal,3.1.2,60
s,0,0.612999916,1,0,100,85,1,99,i39_100_R.jpg,d,100,cr2532,001,2020-04-14_10h13.32.078,MentalRotationFinal,3.1.2,60
s,1,0.531000137,1,0,100,66,1,99,i30_150.jpg,s,150,cr2532,001,2020-04-14_10h13.32.078,MentalRotationFinal,3.1.2,60
s,0,1.429000139,1,0,100,50,1,99,i23_150_R.jpg,d,150,cr2532,001,2020-04-14_10h13.32.078,MentalRotationFinal,3.1.2,60
s,1,0.714999914,1,0,100,92,1,99,i42_150.jpg,s,150,cr2532,001,2020-04-14_10h13.32.078,MentalRotationFinal,3.1.2,60
s,0,1.415999889,1,0,100,55,1,99,i25_150_R.jpg,d,150,cr2532,001,2020-04-14_10h13.32.078,MentalRotationFinal,3.1.2,60
s,1,0.714999914,1,0,100,97,1,99,i46_100.jpg,s,100,cr2532,001,2020-04-14_10h13.32.078,MentalRotationFinal,3.1.2,60
s,0,0.84800005,1,0,100,95,1,99,i44_100_R.jpg,d,100,cr2532,001,2020-04-14_10h13.32.078,MentalRotationFinal,3.1.2,60
s,1,0.680999994,1,0,100,40,1,99,i19_0.jpg,s,0,cr2532,001,2020-04-14_10h13.32.078,MentalRotationFinal,3.1.2,60
s,0,0.595999956,1,0,100,46,1,99,i21_150_R.jpg,d,150,cr2532,001,2020-04-14_10h13.32.078,MentalRotationFinal,3.1.2,60
s,0,0.683000088,1,0,100,39,1,99,i18_150_R.jpg,d,150,cr2532,001,2020-04-14_10h13.32.078,MentalRotationFinal,3.1.2,60
s,0,0.648999929,1,0,100,32,1,99,i15_50_R.jpg,d,50,cr2532,001,2020-04-14_10h13.32.078,MentalRotationFinal,3.1.2,60
s,0,0.631999969,1,0,100,14,1,99,i7_50_R.jpg,d,50,cr2532,001,2020-04-14_10h13.32.078,MentalRotationFinal,3.1.2,60
s,1,0.682999849,1,0,100,9,1,99,i5_0.jpg,s,0,cr2532,001,2020-04-14_10h13.32.078,MentalRotationFinal,3.1.2,60
s,0,0.782000065,1,0,100,27,1,99,i13_50_R.jpg,d,50,cr2532,001,2020-04-14_10h13.32.078,MentalRotationFinal,3.1.2,60
s,0,0.579999924,1,0,100,30,1,99,i14_50_R.jpg,d,50,cr2532,001,2020-04-14_10h13.32.078,MentalRotationFinal,3.1.2,60
s,0,1.03399992,1,0,100,25,1,99,i12_50_R.jpg,d,50,cr2532,001,2020-04-14_10h13.32.078,MentalRotationFinal,3.1.2,60
s,1,1.885999918,1,0,100,49,1,99,i23_50.jpg,s,50,cr2532,001,2020-04-14_10h13.32.078,MentalRotationFinal,3.1.2,60
s,0,1.001000166,1,0,100,93,1,99,i43_100_R.jpg,d,100,cr2532,001,2020-04-14_10h13.32.078,MentalRotationFinal,3.1.2,60
s,1,1.286000013,1,0,100,74,1,99,i34_150.jpg,s,150,cr2532,001,2020-04-14_10h13.32.078,MentalRotationFinal,3.1.2,60
s,0,0.646000147,1,0,100,12,1,99,i6_50_R.jpg,d,50,cr2532,001,2020-04-14_10h13.32.078,MentalRotationFinal,3.1.2,60
s,1,0.766000032,1,0,100,2,1,99,i1_100.jpg,s,100,cr2532,001,2020-04-14_10h13.32.078,MentalRotationFinal,3.1.2,60
s,0,0.766000032,1,0,100,7,1,99,i4_50_R.jpg,d,50,cr2532,001,2020-04-14_10h13.32.078,MentalRotationFinal,3.1.2,60
s,1,0.661999941,1,0,100,18,1,99,i9_0.jpg,s,0,cr2532,001,2020-04-14_10h13.32.078,MentalRotationFinal,3.1.2,60
s,1,0.796000004,1,0,100,17,1,99,i8_100.jpg,s,100,cr2532,001,2020-04-14_10h13.32.078,MentalRotationFinal,3.1.2,60
s,0,0.913999796,1,0,100,89,1,99,i41_100_R.jpg,d,100,cr2532,001,2020-04-14_10h13.32.078,MentalRotationFinal,3.1.2,60
s,1,0.679000139,1,0,100,41,1,99,i19_50.jpg,s,50,cr2532,001,2020-04-14_10h13.32.078,MentalRotationFinal,3.1.2,60
s,1,0.697999954,1,0,100,63,1,99,i29_50.jpg,s,50,cr2532,001,2020-04-14_10h13.32.078,MentalRotationFinal,3.1.2,60
s,0,0.648000002,1,0,100,48,1,99,i22_150_R.jpg,d,150,cr2532,001,2020-04-14_10h13.32.078,MentalRotationFinal,3.1.2,60
s,1,0.631999969,1,0,100,62,1,99,i29_0.jpg,s,0,cr2532,001,2020-04-14_10h13.32.078,MentalRotationFinal,3.1.2,60
s,1,0.745999813,1,0,100,51,1,99,i24_50.jpg,s,50,cr2532,001,2020-04-14_10h13.32.078,MentalRotationFinal,3.1.2,60
s,0,0.897000074,1,0,100,3,1,99,i2_50_R.jpg,d,50,cr2532,001,2020-04-14_10h13.32.078,MentalRotationFinal,3.1.2,60
s,1,0.782999992,1,0,100,83,1,99,i38_150.jpg,s,150,cr2532,001,2020-04-14_10h13.32.078,MentalRotationFinal,3.1.2,60
s,1,0.83100009,1,0,100,70,1,99,i32_150.jpg,s,150,cr2532,001,2020-04-14_10h13.32.078,MentalRotationFinal,3.1.2,60
s,1,0.695999861,1,0,100,94,1,99,i44_0.jpg,s,0,cr2532,001,2020-04-14_10h13.32.078,MentalRotationFinal,3.1.2,60
s,0,0.766000032,1,0,100,78,1,99,i36_100_R.jpg,d,100,cr2532,001,2020-04-14_10h13.32.078,MentalRotationFinal,3.1.2,60
s,0,2.166999817,1,0,100,96,1,99,i45_100_R.jpg,d,100,cr2532,001,2020-04-14_10h13.32.078,MentalRotationFinal,3.1.2,60
s,1,1.920000076,1,0,100,36,1,99,i17_50.jpg,s,50,cr2532,001,2020-04-14_10h13.32.078,MentalRotationFinal,3.1.2,60
s,0,0.598999977,1,0,100,28,1,99,i13_150_R.jpg,d,150,cr2532,001,2020-04-14_10h13.32.078,MentalRotationFinal,3.1.2,60
s,1,1.133999825,1,0,100,26,1,99,i12_100.jpg,s,100,cr2532,001,2020-04-14_10h13.32.078,MentalRotationFinal,3.1.2,60
s,1,0.530999899,1,0,100,53,1,99,i25_0.jpg,s,0,cr2532,001,2020-04-14_10h13.32.078,MentalRotationFinal,3.1.2,60
s,0,0.697999954,1,0,100,82,1,99,i38_100_R.jpg,d,100,cr2532,001,2020-04-14_10h13.32.078,MentalRotationFinal,3.1.2,60
s,1,0.413999796,1,0,100,61,1,99,i28_150.jpg,s,150,cr2532,001,2020-04-14_10h13.32.078,MentalRotationFinal,3.1.2,60
s,1,0.48300004,1,0,100,38,1,99,i18_50.jpg,s,50,cr2532,001,2020-04-14_10h13.32.078,MentalRotationFinal,3.1.2,60
s,1,0.448999882,1,0,100,75,1,99,i35_0.jpg,s,0,cr2532,001,2020-04-14_10h13.32.078,MentalRotationFinal,3.1.2,60
s,1,0.463999987,1,0,100,11,1,99,i5_100.jpg,s,100,cr2532,001,2020-04-14_10h13.32.078,MentalRotationFinal,3.1.2,60
s,1,0.395999908,1,0,100,68,1,99,i31_150.jpg,s,150,cr2532,001,2020-04-14_10h13.32.078,MentalRotationFinal,3.1.2,60
s,0,0.377999783,1,0,100,21,1,99,i10_50_R.jpg,d,50,cr2532,001,2020-04-14_10h13.32.078,MentalRotationFinal,3.1.2,60
d,0,1.999000072,1,0,100,98,1,99,i47_100.jpg,s,100,cr2532,001,2020-04-14_10h13.32.078,MentalRotationFinal,3.1.2,60
s,1,0.362999916,1,0,100,34,1,99,i16_50.jpg,s,50,cr2532,001,2020-04-14_10h13.32.078,MentalRotationFinal,3.1.2,60
s,0,0.311999798,1,0,100,5,1,99,i3_50_R.jpg,d,50,cr2532,001,2020-04-14_10h13.32.078,MentalRotationFinal,3.1.2,60
s,1,0.46600008,1,0,100,43,1,99,i20_50.jpg,s,50,cr2532,001,2020-04-14_10h13.32.078,MentalRotationFinal,3.1.2,60
s,1,0.430999994,1,0,100,15,1,99,i7_100.jpg,s,100,cr2532,001,2020-04-14_10h13.32.078,MentalRotationFinal,3.1.2,60
s,0,0.311999798,1,0,100,1,1,99,i1_50_R.jpg,d,50,cr2532,001,2020-04-14_10h13.32.078,MentalRotationFinal,3.1.2,60
s,1,0.297999859,1,0,100,29,1,99,i14_0.jpg,s,0,cr2532,001,2020-04-14_10h13.32.078,MentalRotationFinal,3.1.2,60
s,1,0.563999891,1,0,100,84,1,99,i39_0.jpg,s,0,cr2532,001,2020-04-14_10h13.32.078,MentalRotationFinal,3.1.2,60
s,0,0.332000017,1,0,100,76,1,99,i35_100_R.jpg,d,100,cr2532,001,2020-04-14_10h13.32.078,MentalRotationFinal,3.1.2,60
s,1,0.315000057,1,0,100,99,1,99,i48_100.jpg,s,100,cr2532,001,2020-04-14_10h13.32.078,MentalRotationFinal,3.1.2,60
s,1,0.362999916,1,0,100,88,1,99,i40_150.jpg,s,150,cr2532,001,2020-04-14_10h13.32.078,MentalRotationFinal,3.1.2,60
s,0,0.295000076,1,0,100,67,1,99,i31_100_R.jpg,d,100,cr2532,001,2020-04-14_10h13.32.078,MentalRotationFinal,3.1.2,60
s,0,0.297999859,1,0,100,57,1,99,i26_150_R.jpg,d,150,cr2532,001,2020-04-14_10h13.32.078,MentalRotationFinal,3.1.2,60
s,1,0.546000004,1,0,100,24,1,99,i11_100.jpg,s,100,cr2532,001,2020-04-14_10h13.32.078,MentalRotationFinal,3.1.2,60
s,1,0.263000011,1,0,100,13,1,99,i6_100.jpg,s,100,cr2532,001,2020-04-14_10h13.32.078,MentalRotationFinal,3.1.2,60
s,1,0.329999924,1,0,100,22,1,99,i10_100.jpg,s,100,cr2532,001,2020-04-14_10h13.32.078,MentalRotationFinal,3.1.2,60
s,1,0.345000029,1,0,100,4,1,99,i2_100.jpg,s,100,cr2532,001,2020-04-14_10h13.32.078,MentalRotationFinal,3.1.2,60
s,1,0.396000147,1,0,100,72,1,99,i33_150.jpg,s,150,cr2532,001,2020-04-14_10h13.32.078,MentalRotationFinal,3.1.2,60
s,0,0.58100009,1,0,100,73,1,99,i34_100_R.jpg,d,100,cr2532,001,2020-04-14_10h13.32.078,MentalRotationFinal,3.1.2,60
s,0,0.414000034,1,0,100,16,1,99,i8_50_R.jpg,d,50,cr2532,001,2020-04-14_10h13.32.078,MentalRotationFinal,3.1.2,60
s,1,0.343999863,1,0,100,90,1,99,i41_150.jpg,s,150,cr2532,001,2020-04-14_10h13.32.078,MentalRotationFinal,3.1.2,60
s,1,0.363999844,1,0,100,81,1,99,i37_150.jpg,s,150,cr2532,001,2020-04-14_10h13.32.078,MentalRotationFinal,3.1.2,60
s,1,0.363000154,1,0,100,6,1,99,i3_100.jpg,s,100,cr2532,001,2020-04-14_10h13.32.078,MentalRotationFinal,3.1.2,60
s,0,0.330000162,1,0,100,91,1,99,i42_100_R.jpg,d,100,cr2532,001,2020-04-14_10h13.32.078,MentalRotationFinal,3.1.2,60
s,1,0.33100009,1,0,100,79,1,99,i36_150.jpg,s,150,cr2532,001,2020-04-14_10h13.32.078,MentalRotationFinal,3.1.2,60
s,0,0.379000187,1,0,100,59,1,99,i27_150_R.jpg,d,150,cr2532,001,2020-04-14_10h13.32.078,MentalRotationFinal,3.1.2,60
s,1,0.345999956,1,0,100,60,1,99,i28_50.jpg,s,50,cr2532,001,2020-04-14_10h13.32.078,MentalRotationFinal,3.1.2,60
s,0,0.400000095,1,0,100,80,1,99,i37_100_R.jpg,d,100,cr2532,001,2020-04-14_10h13.32.078,MentalRotationFinal,3.1.2,60
s,0,0.532000065,1,0,100,71,1,99,i33_100_R.jpg,d,100,cr2532,001,2020-04-14_10h13.32.078,MentalRotationFinal,3.1.2,60
s,1,0.552000046,1,0,100,20,1,99,i9_100.jpg,s,100,cr2532,001,2020-04-14_10h13.32.078,MentalRotationFinal,3.1.2,60
s,0,0.328999996,1,0,100,35,1,99,i16_150_R.jpg,d,150,cr2532,001,2020-04-14_10h13.32.078,MentalRotationFinal,3.1.2,60
s,1,0.848999977,1,0,100,54,1,99,i25_50.jpg,s,50,cr2532,001,2020-04-14_10h13.32.078,MentalRotationFinal,3.1.2,60
s,0,0.580999851,1,0,100,19,1,99,i9_50_R.jpg,d,50,cr2532,001,2020-04-14_10h13.32.078,MentalRotationFinal,3.1.2,60
s,1,0.414000034,1,0,100,47,1,99,i22_50.jpg,s,50,cr2532,001,2020-04-14_10h13.32.078,MentalRotationFinal,3.1.2,60
s,1,0.364000082,1,0,100,8,1,99,i4_100.jpg,s,100,cr2532,001,2020-04-14_10h13.32.078,MentalRotationFinal,3.1.2,60
s,1,0.86500001,1,0,100,58,1,99,i27_50.jpg,s,50,cr2532,001,2020-04-14_10h13.32.078,MentalRotationFinal,3.1.2,60
s,0,0.547999859,1,0,100,42,1,99,i19_150_R.jpg,d,150,cr2532,001,2020-04-14_10h13.32.078,MentalRotationFinal,3.1.2,60
s,1,0.601999998,1,0,100,64,1,99,i29_150.jpg,s,150,cr2532,001,2020-04-14_10h13.32.078,MentalRotationFinal,3.1.2,60
s,0,1.417000055,1,0,100,37,1,99,i17_150_R.jpg,d,150,cr2532,001,2020-04-14_10h13.32.078,MentalRotationFinal,3.1.2,60
