trialResp.keys,trialResp.corr,trialResp.rt,loop.thisRepN,loop.thisTrialN,loop.thisN,loop.thisIndex,loop.ran,loop.order,imagefile,corrAns,angle,participant,session,date,expName,psychopyVersion,frameRate
s,1,1.740999937,1,0,100,56,1,99,i26_50.jpg,s,50,kas981,001,2020-04-14_10h09.49.352,MentalRotationFinal,3.1.2,60
d,1,1.600000143,1,0,100,76,1,99,i35_100_R.jpg,d,100,kas981,001,2020-04-14_10h09.49.352,MentalRotationFinal,3.1.2,60
s,1,1.984000206,1,0,100,86,1,99,i39_150.jpg,s,150,kas981,001,2020-04-14_10h09.49.352,MentalRotationFinal,3.1.2,60
d,0,1.48300004,1,0,100,17,1,99,i8_100.jpg,s,100,kas981,001,2020-04-14_10h09.49.352,MentalRotationFinal,3.1.2,60
d,1,2.134000063,1,0,100,95,1,99,i44_100_R.jpg,d,100,kas981,001,2020-04-14_10h09.49.352,MentalRotationFinal,3.1.2,60
d,1,2.218999863,1,0,100,12,1,99,i6_50_R.jpg,d,50,kas981,001,2020-04-14_10h09.49.352,MentalRotationFinal,3.1.2,60
s,1,1.414999962,1,0,100,4,1,99,i2_100.jpg,s,100,kas981,001,2020-04-14_10h09.49.352,MentalRotationFinal,3.1.2,60
d,0,3.483999968,1,0,100,90,1,99,i41_150.jpg,s,150,kas981,001,2020-04-14_10h09.49.352,MentalRotationFinal,3.1.2,60
d,1,3.167000055,1,0,100,37,1,99,i17_150_R.jpg,d,150,kas981,001,2020-04-14_10h09.49.352,MentalRotationFinal,3.1.2,60
s,1,1.884000063,1,0,100,84,1,99,i39_0.jpg,s,0,kas981,001,2020-04-14_10h09.49.352,MentalRotationFinal,3.1.2,60
s,1,1.401000023,1,0,100,54,1,99,i25_50.jpg,s,50,kas981,001,2020-04-14_10h09.49.352,MentalRotationFinal,3.1.2,60
s,1,1.51699996,1,0,100,41,1,99,i19_50.jpg,s,50,kas981,001,2020-04-14_10h09.49.352,MentalRotationFinal,3.1.2,60
s,0,2.38499999,1,0,100,33,1,99,i15_150_R.jpg,d,150,kas981,001,2020-04-14_10h09.49.352,MentalRotationFinal,3.1.2,60
s,1,2.552000046,1,0,100,45,1,99,i21_50.jpg,s,50,kas981,001,2020-04-14_10h09.49.352,MentalRotationFinal,3.1.2,60
s,1,1.316999912,1,0,100,47,1,99,i22_50.jpg,s,50,kas981,001,2020-04-14_10h09.49.352,MentalRotationFinal,3.1.2,60
s,1,1.900000095,1,0,100,97,1,99,i46_100.jpg,s,100,kas981,001,2020-04-14_10h09.49.352,MentalRotationFinal,3.1.2,60
s,1,1.5,1,0,100,9,1,99,i5_0.jpg,s,0,kas981,001,2020-04-14_10h09.49.352,MentalRotationFinal,3.1.2,60
d,1,2.131999969,1,0,100,42,1,99,i19_150_R.jpg,d,150,kas981,001,2020-04-14_10h09.49.352,MentalRotationFinal,3.1.2,60
d,1,5.296999931,1,0,100,55,1,99,i25_150_R.jpg,d,150,kas981,001,2020-04-14_10h09.49.352,MentalRotationFinal,3.1.2,60
s,1,1.051000118,1,0,100,53,1,99,i25_0.jpg,s,0,kas981,001,2020-04-14_10h09.49.352,MentalRotationFinal,3.1.2,60
d,1,2.484999895,1,0,100,27,1,99,i13_50_R.jpg,d,50,kas981,001,2020-04-14_10h09.49.352,MentalRotationFinal,3.1.2,60
s,1,0.933000088,1,0,100,62,1,99,i29_0.jpg,s,0,kas981,001,2020-04-14_10h09.49.352,MentalRotationFinal,3.1.2,60
d,1,1.585999966,1,0,100,14,1,99,i7_50_R.jpg,d,50,kas981,001,2020-04-14_10h09.49.352,MentalRotationFinal,3.1.2,60
s,1,3.401000023,1,0,100,36,1,99,i17_50.jpg,s,50,kas981,001,2020-04-14_10h09.49.352,MentalRotationFinal,3.1.2,60
s,1,3.832999945,1,0,100,65,1,99,i30_50.jpg,s,50,kas981,001,2020-04-14_10h09.49.352,MentalRotationFinal,3.1.2,60
d,1,1.837000132,1,0,100,57,1,99,i26_150_R.jpg,d,150,kas981,001,2020-04-14_10h09.49.352,MentalRotationFinal,3.1.2,60
d,1,4.266000032,1,0,100,21,1,99,i10_50_R.jpg,d,50,kas981,001,2020-04-14_10h09.49.352,MentalRotationFinal,3.1.2,60
s,1,1.667999983,1,0,100,66,1,99,i30_150.jpg,s,150,kas981,001,2020-04-14_10h09.49.352,MentalRotationFinal,3.1.2,60
s,1,2.351000071,1,0,100,70,1,99,i32_150.jpg,s,150,kas981,001,2020-04-14_10h09.49.352,MentalRotationFinal,3.1.2,60
s,1,2.633000135,1,0,100,43,1,99,i20_50.jpg,s,50,kas981,001,2020-04-14_10h09.49.352,MentalRotationFinal,3.1.2,60
s,1,1.251000166,1,0,100,75,1,99,i35_0.jpg,s,0,kas981,001,2020-04-14_10h09.49.352,MentalRotationFinal,3.1.2,60
s,1,3.75,1,0,100,15,1,99,i7_100.jpg,s,100,kas981,001,2020-04-14_10h09.49.352,MentalRotationFinal,3.1.2,60
d,1,2.65199995,1,0,100,31,1,99,i14_150_R.jpg,d,150,kas981,001,2020-04-14_10h09.49.352,MentalRotationFinal,3.1.2,60
d,1,1.833000183,1,0,100,69,1,99,i32_100_R.jpg,d,100,kas981,001,2020-04-14_10h09.49.352,MentalRotationFinal,3.1.2,60
d,0,2.586999893,1,0,100,61,1,99,i28_150.jpg,s,150,kas981,001,2020-04-14_10h09.49.352,MentalRotationFinal,3.1.2,60
s,1,1.585000038,1,0,100,51,1,99,i24_50.jpg,s,50,kas981,001,2020-04-14_10h09.49.352,MentalRotationFinal,3.1.2,60
d,1,2.299000025,1,0,100,10,1,99,i5_50_R.jpg,d,50,kas981,001,2020-04-14_10h09.49.352,MentalRotationFinal,3.1.2,60
s,0,2.750999928,1,0,100,91,1,99,i42_100_R.jpg,d,100,kas981,001,2020-04-14_10h09.49.352,MentalRotationFinal,3.1.2,60
s,0,3.46600008,1,0,100,3,1,99,i2_50_R.jpg,d,50,kas981,001,2020-04-14_10h09.49.352,MentalRotationFinal,3.1.2,60
s,0,2.252000093,1,0,100,52,1,99,i24_150_R.jpg,d,150,kas981,001,2020-04-14_10h09.49.352,MentalRotationFinal,3.1.2,60
d,1,1.71600008,1,0,100,82,1,99,i38_100_R.jpg,d,100,kas981,001,2020-04-14_10h09.49.352,MentalRotationFinal,3.1.2,60
s,1,0.935000181,1,0,100,0,1,99,i1_0.jpg,s,0,kas981,001,2020-04-14_10h09.49.352,MentalRotationFinal,3.1.2,60
d,1,1.018000126,1,0,100,1,1,99,i1_50_R.jpg,d,50,kas981,001,2020-04-14_10h09.49.352,MentalRotationFinal,3.1.2,60
s,0,4.302000046,1,0,100,93,1,99,i43_100_R.jpg,d,100,kas981,001,2020-04-14_10h09.49.352,MentalRotationFinal,3.1.2,60
d,0,2.282999992,1,0,100,11,1,99,i5_100.jpg,s,100,kas981,001,2020-04-14_10h09.49.352,MentalRotationFinal,3.1.2,60
s,1,1.417000055,1,0,100,81,1,99,i37_150.jpg,s,150,kas981,001,2020-04-14_10h09.49.352,MentalRotationFinal,3.1.2,60
d,1,1.78399992,1,0,100,32,1,99,i15_50_R.jpg,d,50,kas981,001,2020-04-14_10h09.49.352,MentalRotationFinal,3.1.2,60
s,1,4.450999975,1,0,100,20,1,99,i9_100.jpg,s,100,kas981,001,2020-04-14_10h09.49.352,MentalRotationFinal,3.1.2,60
d,1,2.68200016,1,0,100,46,1,99,i21_150_R.jpg,d,150,kas981,001,2020-04-14_10h09.49.352,MentalRotationFinal,3.1.2,60
d,1,1.78399992,1,0,100,73,1,99,i34_100_R.jpg,d,100,kas981,001,2020-04-14_10h09.49.352,MentalRotationFinal,3.1.2,60
d,1,2.250999928,1,0,100,28,1,99,i13_150_R.jpg,d,150,kas981,001,2020-04-14_10h09.49.352,MentalRotationFinal,3.1.2,60
s,1,1.666000128,1,0,100,58,1,99,i27_50.jpg,s,50,kas981,001,2020-04-14_10h09.49.352,MentalRotationFinal,3.1.2,60
d,0,2.398999929,1,0,100,72,1,99,i33_150.jpg,s,150,kas981,001,2020-04-14_10h09.49.352,MentalRotationFinal,3.1.2,60
d,1,1.483999968,1,0,100,35,1,99,i16_150_R.jpg,d,150,kas981,001,2020-04-14_10h09.49.352,MentalRotationFinal,3.1.2,60
d,1,1.269999981,1,0,100,48,1,99,i22_150_R.jpg,d,150,kas981,001,2020-04-14_10h09.49.352,MentalRotationFinal,3.1.2,60
s,1,2.25,1,0,100,99,1,99,i48_100.jpg,s,100,kas981,001,2020-04-14_10h09.49.352,MentalRotationFinal,3.1.2,60
d,1,1.584000111,1,0,100,85,1,99,i39_100_R.jpg,d,100,kas981,001,2020-04-14_10h09.49.352,MentalRotationFinal,3.1.2,60
d,1,1.502000093,1,0,100,7,1,99,i4_50_R.jpg,d,50,kas981,001,2020-04-14_10h09.49.352,MentalRotationFinal,3.1.2,60
s,1,1.000999928,1,0,100,49,1,99,i23_50.jpg,s,50,kas981,001,2020-04-14_10h09.49.352,MentalRotationFinal,3.1.2,60
d,1,3.23300004,1,0,100,44,1,99,i20_150_R.jpg,d,150,kas981,001,2020-04-14_10h09.49.352,MentalRotationFinal,3.1.2,60
d,1,3.666000128,1,0,100,87,1,99,i40_100_R.jpg,d,100,kas981,001,2020-04-14_10h09.49.352,MentalRotationFinal,3.1.2,60
s,1,1.366999865,1,0,100,63,1,99,i29_50.jpg,s,50,kas981,001,2020-04-14_10h09.49.352,MentalRotationFinal,3.1.2,60
d,0,2.01699996,1,0,100,68,1,99,i31_150.jpg,s,150,kas981,001,2020-04-14_10h09.49.352,MentalRotationFinal,3.1.2,60
s,1,1.650000095,1,0,100,79,1,99,i36_150.jpg,s,150,kas981,001,2020-04-14_10h09.49.352,MentalRotationFinal,3.1.2,60
d,1,2.667999983,1,0,100,89,1,99,i41_100_R.jpg,d,100,kas981,001,2020-04-14_10h09.49.352,MentalRotationFinal,3.1.2,60
s,0,2.15199995,1,0,100,59,1,99,i27_150_R.jpg,d,150,kas981,001,2020-04-14_10h09.49.352,MentalRotationFinal,3.1.2,60
s,1,3.149999857,1,0,100,6,1,99,i3_100.jpg,s,100,kas981,001,2020-04-14_10h09.49.352,MentalRotationFinal,3.1.2,60
s,1,3.999000072,1,0,100,74,1,99,i34_150.jpg,s,150,kas981,001,2020-04-14_10h09.49.352,MentalRotationFinal,3.1.2,60
d,1,1.631999969,1,0,100,16,1,99,i8_50_R.jpg,d,50,kas981,001,2020-04-14_10h09.49.352,MentalRotationFinal,3.1.2,60
d,0,1.53399992,1,0,100,22,1,99,i10_100.jpg,s,100,kas981,001,2020-04-14_10h09.49.352,MentalRotationFinal,3.1.2,60
d,1,3.234999895,1,0,100,67,1,99,i31_100_R.jpg,d,100,kas981,001,2020-04-14_10h09.49.352,MentalRotationFinal,3.1.2,60
s,0,1.766000032,1,0,100,39,1,99,i18_150_R.jpg,d,150,kas981,001,2020-04-14_10h09.49.352,MentalRotationFinal,3.1.2,60
s,1,2.40199995,1,0,100,24,1,99,i11_100.jpg,s,100,kas981,001,2020-04-14_10h09.49.352,MentalRotationFinal,3.1.2,60
d,0,2.082999945,1,0,100,64,1,99,i29_150.jpg,s,150,kas981,001,2020-04-14_10h09.49.352,MentalRotationFinal,3.1.2,60
s,1,2.631999969,1,0,100,98,1,99,i47_100.jpg,s,100,kas981,001,2020-04-14_10h09.49.352,MentalRotationFinal,3.1.2,60
s,1,1.5849998,1,0,100,26,1,99,i12_100.jpg,s,100,kas981,001,2020-04-14_10h09.49.352,MentalRotationFinal,3.1.2,60
s,1,4.584000111,1,0,100,77,1,99,i35_150.jpg,s,150,kas981,001,2020-04-14_10h09.49.352,MentalRotationFinal,3.1.2,60
s,0,2.817000151,1,0,100,96,1,99,i45_100_R.jpg,d,100,kas981,001,2020-04-14_10h09.49.352,MentalRotationFinal,3.1.2,60
d,1,2.032999992,1,0,100,50,1,99,i23_150_R.jpg,d,150,kas981,001,2020-04-14_10h09.49.352,MentalRotationFinal,3.1.2,60
s,1,2.901000023,1,0,100,34,1,99,i16_50.jpg,s,50,kas981,001,2020-04-14_10h09.49.352,MentalRotationFinal,3.1.2,60
s,1,4.16899991,1,0,100,88,1,99,i40_150.jpg,s,150,kas981,001,2020-04-14_10h09.49.352,MentalRotationFinal,3.1.2,60
s,1,2.034000158,1,0,100,38,1,99,i18_50.jpg,s,50,kas981,001,2020-04-14_10h09.49.352,MentalRotationFinal,3.1.2,60
s,1,1.619000196,1,0,100,8,1,99,i4_100.jpg,s,100,kas981,001,2020-04-14_10h09.49.352,MentalRotationFinal,3.1.2,60
d,1,4.166000128,1,0,100,5,1,99,i3_50_R.jpg,d,50,kas981,001,2020-04-14_10h09.49.352,MentalRotationFinal,3.1.2,60
d,1,2.850999832,1,0,100,78,1,99,i36_100_R.jpg,d,100,kas981,001,2020-04-14_10h09.49.352,MentalRotationFinal,3.1.2,60
d,1,5.23300004,1,0,100,80,1,99,i37_100_R.jpg,d,100,kas981,001,2020-04-14_10h09.49.352,MentalRotationFinal,3.1.2,60
d,1,4.634000063,1,0,100,71,1,99,i33_100_R.jpg,d,100,kas981,001,2020-04-14_10h09.49.352,MentalRotationFinal,3.1.2,60
s,1,4.717000008,1,0,100,13,1,99,i6_100.jpg,s,100,kas981,001,2020-04-14_10h09.49.352,MentalRotationFinal,3.1.2,60
s,0,5.215999842,1,0,100,23,1,99,i11_50_R.jpg,d,50,kas981,001,2020-04-14_10h09.49.352,MentalRotationFinal,3.1.2,60
s,1,2.635999918,1,0,100,2,1,99,i1_100.jpg,s,100,kas981,001,2020-04-14_10h09.49.352,MentalRotationFinal,3.1.2,60
s,1,2.567000151,1,0,100,92,1,99,i42_150.jpg,s,150,kas981,001,2020-04-14_10h09.49.352,MentalRotationFinal,3.1.2,60
s,1,0.768000126,1,0,100,29,1,99,i14_0.jpg,s,0,kas981,001,2020-04-14_10h09.49.352,MentalRotationFinal,3.1.2,60
s,1,1.9150002,1,0,100,83,1,99,i38_150.jpg,s,150,kas981,001,2020-04-14_10h09.49.352,MentalRotationFinal,3.1.2,60
d,1,2.751000166,1,0,100,25,1,99,i12_50_R.jpg,d,50,kas981,001,2020-04-14_10h09.49.352,MentalRotationFinal,3.1.2,60
d,1,1.699999809,1,0,100,19,1,99,i9_50_R.jpg,d,50,kas981,001,2020-04-14_10h09.49.352,MentalRotationFinal,3.1.2,60
s,1,0.968000174,1,0,100,94,1,99,i44_0.jpg,s,0,kas981,001,2020-04-14_10h09.49.352,MentalRotationFinal,3.1.2,60
s,1,0.802000046,1,0,100,40,1,99,i19_0.jpg,s,0,kas981,001,2020-04-14_10h09.49.352,MentalRotationFinal,3.1.2,60
s,1,0.919000149,1,0,100,18,1,99,i9_0.jpg,s,0,kas981,001,2020-04-14_10h09.49.352,MentalRotationFinal,3.1.2,60
s,0,1.182999849,1,0,100,30,1,99,i14_50_R.jpg,d,50,kas981,001,2020-04-14_10h09.49.352,MentalRotationFinal,3.1.2,60
s,1,2.515000105,1,0,100,60,1,99,i28_50.jpg,s,50,kas981,001,2020-04-14_10h09.49.352,MentalRotationFinal,3.1.2,60
