trialResp.keys,trialResp.corr,trialResp.rt,loop.thisRepN,loop.thisTrialN,loop.thisN,loop.thisIndex,loop.ran,loop.order,imagefile,corrAns,angle,participant,session,date,expName,psychopyVersion,frameRate
d,1,8.038000107,1,0,100,93,1,99,i43_100_R.jpg,d,100,pr27,001,2019-10-16_10h06.55.109,MentalRotationFinal,3.1.2,60
s,1,2.302999973,1,0,100,54,1,99,i25_50.jpg,s,50,pr27,001,2019-10-16_10h06.55.109,MentalRotationFinal,3.1.2,60
s,1,5.073999882,1,0,100,22,1,99,i10_100.jpg,s,100,pr27,001,2019-10-16_10h06.55.109,MentalRotationFinal,3.1.2,60
d,1,5.192000151,1,0,100,1,1,99,i1_50_R.jpg,d,50,pr27,001,2019-10-16_10h06.55.109,MentalRotationFinal,3.1.2,60
d,1,7.423000097,1,0,100,42,1,99,i19_150_R.jpg,d,150,pr27,001,2019-10-16_10h06.55.109,MentalRotationFinal,3.1.2,60
d,1,4.273999929,1,0,100,52,1,99,i24_150_R.jpg,d,150,pr27,001,2019-10-16_10h06.55.109,MentalRotationFinal,3.1.2,60
d,1,8.741999865,1,0,100,14,1,99,i7_50_R.jpg,d,50,pr27,001,2019-10-16_10h06.55.109,MentalRotationFinal,3.1.2,60
d,1,12.15900016,1,0,100,67,1,99,i31_100_R.jpg,d,100,pr27,001,2019-10-16_10h06.55.109,MentalRotationFinal,3.1.2,60
s,1,5.672999859,1,0,100,99,1,99,i48_100.jpg,s,100,pr27,001,2019-10-16_10h06.55.109,MentalRotationFinal,3.1.2,60
s,1,13.7249999,1,0,100,79,1,99,i36_150.jpg,s,150,pr27,001,2019-10-16_10h06.55.109,MentalRotationFinal,3.1.2,60
d,1,8.188000202,1,0,100,5,1,99,i3_50_R.jpg,d,50,pr27,001,2019-10-16_10h06.55.109,MentalRotationFinal,3.1.2,60
s,1,4.674000025,1,0,100,75,1,99,i35_0.jpg,s,0,pr27,001,2019-10-16_10h06.55.109,MentalRotationFinal,3.1.2,60
s,1,11.84299994,1,0,100,81,1,99,i37_150.jpg,s,150,pr27,001,2019-10-16_10h06.55.109,MentalRotationFinal,3.1.2,60
s,1,14.71099997,1,0,100,66,1,99,i30_150.jpg,s,150,pr27,001,2019-10-16_10h06.55.109,MentalRotationFinal,3.1.2,60
d,1,8.242000103,1,0,100,39,1,99,i18_150_R.jpg,d,150,pr27,001,2019-10-16_10h06.55.109,MentalRotationFinal,3.1.2,60
d,1,13.37800002,1,0,100,69,1,99,i32_100_R.jpg,d,100,pr27,001,2019-10-16_10h06.55.109,MentalRotationFinal,3.1.2,60
d,1,5.992000103,1,0,100,91,1,99,i42_100_R.jpg,d,100,pr27,001,2019-10-16_10h06.55.109,MentalRotationFinal,3.1.2,60
d,1,13.52799988,1,0,100,73,1,99,i34_100_R.jpg,d,100,pr27,001,2019-10-16_10h06.55.109,MentalRotationFinal,3.1.2,60
s,1,3.690999985,1,0,100,4,1,99,i2_100.jpg,s,100,pr27,001,2019-10-16_10h06.55.109,MentalRotationFinal,3.1.2,60
s,1,4.491000175,1,0,100,0,1,99,i1_0.jpg,s,0,pr27,001,2019-10-16_10h06.55.109,MentalRotationFinal,3.1.2,60
d,1,10.67700005,1,0,100,59,1,99,i27_150_R.jpg,d,150,pr27,001,2019-10-16_10h06.55.109,MentalRotationFinal,3.1.2,60
d,1,7.507999897,1,0,100,30,1,99,i14_50_R.jpg,d,50,pr27,001,2019-10-16_10h06.55.109,MentalRotationFinal,3.1.2,60
s,1,4.72300005,1,0,100,6,1,99,i3_100.jpg,s,100,pr27,001,2019-10-16_10h06.55.109,MentalRotationFinal,3.1.2,60
d,1,10.81000018,1,0,100,87,1,99,i40_100_R.jpg,d,100,pr27,001,2019-10-16_10h06.55.109,MentalRotationFinal,3.1.2,60
s,1,2.154999971,1,0,100,34,1,99,i16_50.jpg,s,50,pr27,001,2019-10-16_10h06.55.109,MentalRotationFinal,3.1.2,60
s,1,2.907999992,1,0,100,41,1,99,i19_50.jpg,s,50,pr27,001,2019-10-16_10h06.55.109,MentalRotationFinal,3.1.2,60
s,1,1.789999962,1,0,100,45,1,99,i21_50.jpg,s,50,pr27,001,2019-10-16_10h06.55.109,MentalRotationFinal,3.1.2,60
s,1,1.070999861,1,0,100,18,1,99,i9_0.jpg,s,0,pr27,001,2019-10-16_10h06.55.109,MentalRotationFinal,3.1.2,60
d,1,2.272000074,1,0,100,95,1,99,i44_100_R.jpg,d,100,pr27,001,2019-10-16_10h06.55.109,MentalRotationFinal,3.1.2,60
s,1,2.140000105,1,0,100,58,1,99,i27_50.jpg,s,50,pr27,001,2019-10-16_10h06.55.109,MentalRotationFinal,3.1.2,60
s,1,4.588000059,1,0,100,26,1,99,i12_100.jpg,s,100,pr27,001,2019-10-16_10h06.55.109,MentalRotationFinal,3.1.2,60
s,1,11.69400001,1,0,100,92,1,99,i42_150.jpg,s,150,pr27,001,2019-10-16_10h06.55.109,MentalRotationFinal,3.1.2,60
s,1,2.805999994,1,0,100,65,1,99,i30_50.jpg,s,50,pr27,001,2019-10-16_10h06.55.109,MentalRotationFinal,3.1.2,60
d,1,12.79399991,1,0,100,46,1,99,i21_150_R.jpg,d,150,pr27,001,2019-10-16_10h06.55.109,MentalRotationFinal,3.1.2,60
s,1,6.208999872,1,0,100,11,1,99,i5_100.jpg,s,100,pr27,001,2019-10-16_10h06.55.109,MentalRotationFinal,3.1.2,60
d,1,12.49399996,1,0,100,19,1,99,i9_50_R.jpg,d,50,pr27,001,2019-10-16_10h06.55.109,MentalRotationFinal,3.1.2,60
d,1,2.937999964,1,0,100,16,1,99,i8_50_R.jpg,d,50,pr27,001,2019-10-16_10h06.55.109,MentalRotationFinal,3.1.2,60
d,1,10.0940001,1,0,100,37,1,99,i17_150_R.jpg,d,150,pr27,001,2019-10-16_10h06.55.109,MentalRotationFinal,3.1.2,60
d,1,2.45600009,1,0,100,55,1,99,i25_150_R.jpg,d,150,pr27,001,2019-10-16_10h06.55.109,MentalRotationFinal,3.1.2,60
s,1,4.756999969,1,0,100,72,1,99,i33_150.jpg,s,150,pr27,001,2019-10-16_10h06.55.109,MentalRotationFinal,3.1.2,60
s,1,6.322999954,1,0,100,24,1,99,i11_100.jpg,s,100,pr27,001,2019-10-16_10h06.55.109,MentalRotationFinal,3.1.2,60
s,1,2.922999859,1,0,100,36,1,99,i17_50.jpg,s,50,pr27,001,2019-10-16_10h06.55.109,MentalRotationFinal,3.1.2,60
d,1,4.558000088,1,0,100,3,1,99,i2_50_R.jpg,d,50,pr27,001,2019-10-16_10h06.55.109,MentalRotationFinal,3.1.2,60
s,1,5.960000038,1,0,100,8,1,99,i4_100.jpg,s,100,pr27,001,2019-10-16_10h06.55.109,MentalRotationFinal,3.1.2,60
s,1,4.34100008,1,0,100,83,1,99,i38_150.jpg,s,150,pr27,001,2019-10-16_10h06.55.109,MentalRotationFinal,3.1.2,60
s,1,2.107000113,1,0,100,94,1,99,i44_0.jpg,s,0,pr27,001,2019-10-16_10h06.55.109,MentalRotationFinal,3.1.2,60
d,1,2.906000137,1,0,100,32,1,99,i15_50_R.jpg,d,50,pr27,001,2019-10-16_10h06.55.109,MentalRotationFinal,3.1.2,60
d,1,4.957999945,1,0,100,35,1,99,i16_150_R.jpg,d,150,pr27,001,2019-10-16_10h06.55.109,MentalRotationFinal,3.1.2,60
s,1,3.208000183,1,0,100,38,1,99,i18_50.jpg,s,50,pr27,001,2019-10-16_10h06.55.109,MentalRotationFinal,3.1.2,60
s,1,17.83000016,1,0,100,77,1,99,i35_150.jpg,s,150,pr27,001,2019-10-16_10h06.55.109,MentalRotationFinal,3.1.2,60
d,1,9.227999926,1,0,100,44,1,99,i20_150_R.jpg,d,150,pr27,001,2019-10-16_10h06.55.109,MentalRotationFinal,3.1.2,60
s,1,1.621999979,1,0,100,53,1,99,i25_0.jpg,s,0,pr27,001,2019-10-16_10h06.55.109,MentalRotationFinal,3.1.2,60
s,1,5.309000015,1,0,100,68,1,99,i31_150.jpg,s,150,pr27,001,2019-10-16_10h06.55.109,MentalRotationFinal,3.1.2,60
s,1,6.273000002,1,0,100,49,1,99,i23_50.jpg,s,50,pr27,001,2019-10-16_10h06.55.109,MentalRotationFinal,3.1.2,60
s,1,11.81200004,1,0,100,97,1,99,i46_100.jpg,s,100,pr27,001,2019-10-16_10h06.55.109,MentalRotationFinal,3.1.2,60
s,1,9.743000031,1,0,100,74,1,99,i34_150.jpg,s,150,pr27,001,2019-10-16_10h06.55.109,MentalRotationFinal,3.1.2,60
d,1,7.960000038,1,0,100,21,1,99,i10_50_R.jpg,d,50,pr27,001,2019-10-16_10h06.55.109,MentalRotationFinal,3.1.2,60
s,1,10.17900014,1,0,100,90,1,99,i41_150.jpg,s,150,pr27,001,2019-10-16_10h06.55.109,MentalRotationFinal,3.1.2,60
d,1,6.64199996,1,0,100,71,1,99,i33_100_R.jpg,d,100,pr27,001,2019-10-16_10h06.55.109,MentalRotationFinal,3.1.2,60
s,1,18.91199994,1,0,100,88,1,99,i40_150.jpg,s,150,pr27,001,2019-10-16_10h06.55.109,MentalRotationFinal,3.1.2,60
d,1,7.707999945,1,0,100,27,1,99,i13_50_R.jpg,d,50,pr27,001,2019-10-16_10h06.55.109,MentalRotationFinal,3.1.2,60
s,1,16.14700007,1,0,100,64,1,99,i29_150.jpg,s,150,pr27,001,2019-10-16_10h06.55.109,MentalRotationFinal,3.1.2,60
d,1,2.907999992,1,0,100,25,1,99,i12_50_R.jpg,d,50,pr27,001,2019-10-16_10h06.55.109,MentalRotationFinal,3.1.2,60
d,1,6.042999983,1,0,100,57,1,99,i26_150_R.jpg,d,150,pr27,001,2019-10-16_10h06.55.109,MentalRotationFinal,3.1.2,60
d,1,5.490999937,1,0,100,78,1,99,i36_100_R.jpg,d,100,pr27,001,2019-10-16_10h06.55.109,MentalRotationFinal,3.1.2,60
d,1,3.871999979,1,0,100,89,1,99,i41_100_R.jpg,d,100,pr27,001,2019-10-16_10h06.55.109,MentalRotationFinal,3.1.2,60
s,1,2.605000019,1,0,100,43,1,99,i20_50.jpg,s,50,pr27,001,2019-10-16_10h06.55.109,MentalRotationFinal,3.1.2,60
d,1,15.977,1,0,100,80,1,99,i37_100_R.jpg,d,100,pr27,001,2019-10-16_10h06.55.109,MentalRotationFinal,3.1.2,60
s,1,4.623999834,1,0,100,86,1,99,i39_150.jpg,s,150,pr27,001,2019-10-16_10h06.55.109,MentalRotationFinal,3.1.2,60
s,1,1.039000034,1,0,100,29,1,99,i14_0.jpg,s,0,pr27,001,2019-10-16_10h06.55.109,MentalRotationFinal,3.1.2,60
d,1,1.907999992,1,0,100,82,1,99,i38_100_R.jpg,d,100,pr27,001,2019-10-16_10h06.55.109,MentalRotationFinal,3.1.2,60
d,1,2.723999977,1,0,100,96,1,99,i45_100_R.jpg,d,100,pr27,001,2019-10-16_10h06.55.109,MentalRotationFinal,3.1.2,60
d,1,2.374000072,1,0,100,7,1,99,i4_50_R.jpg,d,50,pr27,001,2019-10-16_10h06.55.109,MentalRotationFinal,3.1.2,60
s,1,1.82400012,1,0,100,47,1,99,i22_50.jpg,s,50,pr27,001,2019-10-16_10h06.55.109,MentalRotationFinal,3.1.2,60
s,1,1.523000002,1,0,100,17,1,99,i8_100.jpg,s,100,pr27,001,2019-10-16_10h06.55.109,MentalRotationFinal,3.1.2,60
d,1,2.39199996,1,0,100,33,1,99,i15_150_R.jpg,d,150,pr27,001,2019-10-16_10h06.55.109,MentalRotationFinal,3.1.2,60
d,1,1.922999859,1,0,100,85,1,99,i39_100_R.jpg,d,100,pr27,001,2019-10-16_10h06.55.109,MentalRotationFinal,3.1.2,60
s,1,3.088999987,1,0,100,9,1,99,i5_0.jpg,s,0,pr27,001,2019-10-16_10h06.55.109,MentalRotationFinal,3.1.2,60
d,1,12.59200001,1,0,100,76,1,99,i35_100_R.jpg,d,100,pr27,001,2019-10-16_10h06.55.109,MentalRotationFinal,3.1.2,60
s,1,4.905999899,1,0,100,61,1,99,i28_150.jpg,s,150,pr27,001,2019-10-16_10h06.55.109,MentalRotationFinal,3.1.2,60
s,1,1.99000001,1,0,100,2,1,99,i1_100.jpg,s,100,pr27,001,2019-10-16_10h06.55.109,MentalRotationFinal,3.1.2,60
s,1,1.757999897,1,0,100,56,1,99,i26_50.jpg,s,50,pr27,001,2019-10-16_10h06.55.109,MentalRotationFinal,3.1.2,60
s,1,2.705999851,1,0,100,70,1,99,i32_150.jpg,s,150,pr27,001,2019-10-16_10h06.55.109,MentalRotationFinal,3.1.2,60
s,1,3.257999897,1,0,100,98,1,99,i47_100.jpg,s,100,pr27,001,2019-10-16_10h06.55.109,MentalRotationFinal,3.1.2,60
s,1,2.338999987,1,0,100,60,1,99,i28_50.jpg,s,50,pr27,001,2019-10-16_10h06.55.109,MentalRotationFinal,3.1.2,60
s,1,8.342000008,1,0,100,20,1,99,i9_100.jpg,s,100,pr27,001,2019-10-16_10h06.55.109,MentalRotationFinal,3.1.2,60
d,1,2.173000097,1,0,100,10,1,99,i5_50_R.jpg,d,50,pr27,001,2019-10-16_10h06.55.109,MentalRotationFinal,3.1.2,60
d,1,2.372999907,1,0,100,12,1,99,i6_50_R.jpg,d,50,pr27,001,2019-10-16_10h06.55.109,MentalRotationFinal,3.1.2,60
s,1,0.856000185,1,0,100,84,1,99,i39_0.jpg,s,0,pr27,001,2019-10-16_10h06.55.109,MentalRotationFinal,3.1.2,60
d,1,1.373000145,1,0,100,48,1,99,i22_150_R.jpg,d,150,pr27,001,2019-10-16_10h06.55.109,MentalRotationFinal,3.1.2,60
s,1,2.421000004,1,0,100,15,1,99,i7_100.jpg,s,100,pr27,001,2019-10-16_10h06.55.109,MentalRotationFinal,3.1.2,60
s,1,0.970999956,1,0,100,62,1,99,i29_0.jpg,s,0,pr27,001,2019-10-16_10h06.55.109,MentalRotationFinal,3.1.2,60
d,1,1.355000019,1,0,100,50,1,99,i23_150_R.jpg,d,150,pr27,001,2019-10-16_10h06.55.109,MentalRotationFinal,3.1.2,60
d,0,3.690000057,1,0,100,63,1,99,i29_50.jpg,s,50,pr27,001,2019-10-16_10h06.55.109,MentalRotationFinal,3.1.2,60
s,1,8.81099987,1,0,100,13,1,99,i6_100.jpg,s,100,pr27,001,2019-10-16_10h06.55.109,MentalRotationFinal,3.1.2,60
d,1,2.373999834,1,0,100,31,1,99,i14_150_R.jpg,d,150,pr27,001,2019-10-16_10h06.55.109,MentalRotationFinal,3.1.2,60
s,1,0.904000044,1,0,100,40,1,99,i19_0.jpg,s,0,pr27,001,2019-10-16_10h06.55.109,MentalRotationFinal,3.1.2,60
s,1,1.273999929,1,0,100,51,1,99,i24_50.jpg,s,50,pr27,001,2019-10-16_10h06.55.109,MentalRotationFinal,3.1.2,60
d,1,4.007999897,1,0,100,23,1,99,i11_50_R.jpg,d,50,pr27,001,2019-10-16_10h06.55.109,MentalRotationFinal,3.1.2,60
d,1,3.042999983,1,0,100,28,1,99,i13_150_R.jpg,d,150,pr27,001,2019-10-16_10h06.55.109,MentalRotationFinal,3.1.2,60
