trialResp.keys,trialResp.corr,trialResp.rt,loop.thisRepN,loop.thisTrialN,loop.thisN,loop.thisIndex,loop.ran,loop.order,imagefile,corrAns,angle,participant,session,date,expName,psychopyVersion,frameRate
s,1,3.72300005,1,0,100,63,1,99,i29_50.jpg,s,50,seh542,001,2020-04-14_10h09.51.253,MentalRotationFinal,3.1.2,60
d,1,5.387000084,1,0,100,87,1,99,i40_100_R.jpg,d,100,seh542,001,2020-04-14_10h09.51.253,MentalRotationFinal,3.1.2,60
d,1,2.152999878,1,0,100,35,1,99,i16_150_R.jpg,d,150,seh542,001,2020-04-14_10h09.51.253,MentalRotationFinal,3.1.2,60
s,1,5.370000124,1,0,100,49,1,99,i23_50.jpg,s,50,seh542,001,2020-04-14_10h09.51.253,MentalRotationFinal,3.1.2,60
d,1,2.521000147,1,0,100,67,1,99,i31_100_R.jpg,d,100,seh542,001,2020-04-14_10h09.51.253,MentalRotationFinal,3.1.2,60
s,1,1.24000001,1,0,100,0,1,99,i1_0.jpg,s,0,seh542,001,2020-04-14_10h09.51.253,MentalRotationFinal,3.1.2,60
d,1,3.739000082,1,0,100,16,1,99,i8_50_R.jpg,d,50,seh542,001,2020-04-14_10h09.51.253,MentalRotationFinal,3.1.2,60
s,1,1.888000011,1,0,100,83,1,99,i38_150.jpg,s,150,seh542,001,2020-04-14_10h09.51.253,MentalRotationFinal,3.1.2,60
d,1,3.037000179,1,0,100,37,1,99,i17_150_R.jpg,d,150,seh542,001,2020-04-14_10h09.51.253,MentalRotationFinal,3.1.2,60
d,1,3.571000099,1,0,100,59,1,99,i27_150_R.jpg,d,150,seh542,001,2020-04-14_10h09.51.253,MentalRotationFinal,3.1.2,60
s,1,1.271000147,1,0,100,56,1,99,i26_50.jpg,s,50,seh542,001,2020-04-14_10h09.51.253,MentalRotationFinal,3.1.2,60
s,1,1.222000122,1,0,100,53,1,99,i25_0.jpg,s,0,seh542,001,2020-04-14_10h09.51.253,MentalRotationFinal,3.1.2,60
s,1,2.453999996,1,0,100,17,1,99,i8_100.jpg,s,100,seh542,001,2020-04-14_10h09.51.253,MentalRotationFinal,3.1.2,60
s,1,2.188999891,1,0,100,68,1,99,i31_150.jpg,s,150,seh542,001,2020-04-14_10h09.51.253,MentalRotationFinal,3.1.2,60
d,1,2.088000059,1,0,100,33,1,99,i15_150_R.jpg,d,150,seh542,001,2020-04-14_10h09.51.253,MentalRotationFinal,3.1.2,60
s,1,3.421000004,1,0,100,98,1,99,i47_100.jpg,s,100,seh542,001,2020-04-14_10h09.51.253,MentalRotationFinal,3.1.2,60
s,1,2.802999973,1,0,100,74,1,99,i34_150.jpg,s,150,seh542,001,2020-04-14_10h09.51.253,MentalRotationFinal,3.1.2,60
s,1,1.921000004,1,0,100,45,1,99,i21_50.jpg,s,50,seh542,001,2020-04-14_10h09.51.253,MentalRotationFinal,3.1.2,60
s,1,1.288000107,1,0,100,94,1,99,i44_0.jpg,s,0,seh542,001,2020-04-14_10h09.51.253,MentalRotationFinal,3.1.2,60
s,1,1.489000082,1,0,100,75,1,99,i35_0.jpg,s,0,seh542,001,2020-04-14_10h09.51.253,MentalRotationFinal,3.1.2,60
s,1,2.519999981,1,0,100,18,1,99,i9_0.jpg,s,0,seh542,001,2020-04-14_10h09.51.253,MentalRotationFinal,3.1.2,60
d,1,1.352999926,1,0,100,50,1,99,i23_150_R.jpg,d,150,seh542,001,2020-04-14_10h09.51.253,MentalRotationFinal,3.1.2,60
s,1,0.937000036,1,0,100,9,1,99,i5_0.jpg,s,0,seh542,001,2020-04-14_10h09.51.253,MentalRotationFinal,3.1.2,60
d,1,1.103999853,1,0,100,27,1,99,i13_50_R.jpg,d,50,seh542,001,2020-04-14_10h09.51.253,MentalRotationFinal,3.1.2,60
s,1,3.371999979,1,0,100,26,1,99,i12_100.jpg,s,100,seh542,001,2020-04-14_10h09.51.253,MentalRotationFinal,3.1.2,60
s,1,2.838999987,1,0,100,41,1,99,i19_50.jpg,s,50,seh542,001,2020-04-14_10h09.51.253,MentalRotationFinal,3.1.2,60
d,1,1.539000034,1,0,100,96,1,99,i45_100_R.jpg,d,100,seh542,001,2020-04-14_10h09.51.253,MentalRotationFinal,3.1.2,60
d,1,1.720999956,1,0,100,48,1,99,i22_150_R.jpg,d,150,seh542,001,2020-04-14_10h09.51.253,MentalRotationFinal,3.1.2,60
d,1,2.536000013,1,0,100,30,1,99,i14_50_R.jpg,d,50,seh542,001,2020-04-14_10h09.51.253,MentalRotationFinal,3.1.2,60
d,1,3.671000004,1,0,100,19,1,99,i9_50_R.jpg,d,50,seh542,001,2020-04-14_10h09.51.253,MentalRotationFinal,3.1.2,60
s,1,1.891000032,1,0,100,4,1,99,i2_100.jpg,s,100,seh542,001,2020-04-14_10h09.51.253,MentalRotationFinal,3.1.2,60
d,1,0.986999989,1,0,100,85,1,99,i39_100_R.jpg,d,100,seh542,001,2020-04-14_10h09.51.253,MentalRotationFinal,3.1.2,60
d,1,1.957000017,1,0,100,3,1,99,i2_50_R.jpg,d,50,seh542,001,2020-04-14_10h09.51.253,MentalRotationFinal,3.1.2,60
d,1,2.307999849,1,0,100,1,1,99,i1_50_R.jpg,d,50,seh542,001,2020-04-14_10h09.51.253,MentalRotationFinal,3.1.2,60
s,1,11.72099996,1,0,100,86,1,99,i39_150.jpg,s,150,seh542,001,2020-04-14_10h09.51.253,MentalRotationFinal,3.1.2,60
s,1,4.656000137,1,0,100,13,1,99,i6_100.jpg,s,100,seh542,001,2020-04-14_10h09.51.253,MentalRotationFinal,3.1.2,60
s,1,8.437999964,1,0,100,77,1,99,i35_150.jpg,s,150,seh542,001,2020-04-14_10h09.51.253,MentalRotationFinal,3.1.2,60
s,1,2.404999971,1,0,100,8,1,99,i4_100.jpg,s,100,seh542,001,2020-04-14_10h09.51.253,MentalRotationFinal,3.1.2,60
d,1,5.089999914,1,0,100,93,1,99,i43_100_R.jpg,d,100,seh542,001,2020-04-14_10h09.51.253,MentalRotationFinal,3.1.2,60
s,1,3.322000027,1,0,100,84,1,99,i39_0.jpg,s,0,seh542,001,2020-04-14_10h09.51.253,MentalRotationFinal,3.1.2,60
d,1,4.255000114,1,0,100,78,1,99,i36_100_R.jpg,d,100,seh542,001,2020-04-14_10h09.51.253,MentalRotationFinal,3.1.2,60
s,1,0.955000162,1,0,100,29,1,99,i14_0.jpg,s,0,seh542,001,2020-04-14_10h09.51.253,MentalRotationFinal,3.1.2,60
d,1,4.221999884,1,0,100,69,1,99,i32_100_R.jpg,d,100,seh542,001,2020-04-14_10h09.51.253,MentalRotationFinal,3.1.2,60
d,1,4.388000011,1,0,100,7,1,99,i4_50_R.jpg,d,50,seh542,001,2020-04-14_10h09.51.253,MentalRotationFinal,3.1.2,60
d,1,2.303999901,1,0,100,52,1,99,i24_150_R.jpg,d,150,seh542,001,2020-04-14_10h09.51.253,MentalRotationFinal,3.1.2,60
d,1,4.589999914,1,0,100,21,1,99,i10_50_R.jpg,d,50,seh542,001,2020-04-14_10h09.51.253,MentalRotationFinal,3.1.2,60
s,1,7.120000124,1,0,100,81,1,99,i37_150.jpg,s,150,seh542,001,2020-04-14_10h09.51.253,MentalRotationFinal,3.1.2,60
s,1,4.856999874,1,0,100,92,1,99,i42_150.jpg,s,150,seh542,001,2020-04-14_10h09.51.253,MentalRotationFinal,3.1.2,60
s,1,6.539000034,1,0,100,97,1,99,i46_100.jpg,s,100,seh542,001,2020-04-14_10h09.51.253,MentalRotationFinal,3.1.2,60
s,1,2.737999916,1,0,100,38,1,99,i18_50.jpg,s,50,seh542,001,2020-04-14_10h09.51.253,MentalRotationFinal,3.1.2,60
s,1,2.606000185,1,0,100,58,1,99,i27_50.jpg,s,50,seh542,001,2020-04-14_10h09.51.253,MentalRotationFinal,3.1.2,60
s,1,2.753999949,1,0,100,64,1,99,i29_150.jpg,s,150,seh542,001,2020-04-14_10h09.51.253,MentalRotationFinal,3.1.2,60
d,1,1.921999931,1,0,100,31,1,99,i14_150_R.jpg,d,150,seh542,001,2020-04-14_10h09.51.253,MentalRotationFinal,3.1.2,60
d,1,2.440000057,1,0,100,28,1,99,i13_150_R.jpg,d,150,seh542,001,2020-04-14_10h09.51.253,MentalRotationFinal,3.1.2,60
s,1,2.388999939,1,0,100,24,1,99,i11_100.jpg,s,100,seh542,001,2020-04-14_10h09.51.253,MentalRotationFinal,3.1.2,60
s,1,2.237999916,1,0,100,43,1,99,i20_50.jpg,s,50,seh542,001,2020-04-14_10h09.51.253,MentalRotationFinal,3.1.2,60
d,1,10.03699994,1,0,100,91,1,99,i42_100_R.jpg,d,100,seh542,001,2020-04-14_10h09.51.253,MentalRotationFinal,3.1.2,60
d,1,3.789999962,1,0,100,57,1,99,i26_150_R.jpg,d,150,seh542,001,2020-04-14_10h09.51.253,MentalRotationFinal,3.1.2,60
s,1,3.388000011,1,0,100,11,1,99,i5_100.jpg,s,100,seh542,001,2020-04-14_10h09.51.253,MentalRotationFinal,3.1.2,60
s,1,3.855000019,1,0,100,36,1,99,i17_50.jpg,s,50,seh542,001,2020-04-14_10h09.51.253,MentalRotationFinal,3.1.2,60
d,1,2.67200017,1,0,100,25,1,99,i12_50_R.jpg,d,50,seh542,001,2020-04-14_10h09.51.253,MentalRotationFinal,3.1.2,60
s,1,4.855000019,1,0,100,66,1,99,i30_150.jpg,s,150,seh542,001,2020-04-14_10h09.51.253,MentalRotationFinal,3.1.2,60
s,1,2.269999981,1,0,100,65,1,99,i30_50.jpg,s,50,seh542,001,2020-04-14_10h09.51.253,MentalRotationFinal,3.1.2,60
s,1,1.940000057,1,0,100,34,1,99,i16_50.jpg,s,50,seh542,001,2020-04-14_10h09.51.253,MentalRotationFinal,3.1.2,60
d,1,2.957999945,1,0,100,73,1,99,i34_100_R.jpg,d,100,seh542,001,2020-04-14_10h09.51.253,MentalRotationFinal,3.1.2,60
s,1,5.089999914,1,0,100,15,1,99,i7_100.jpg,s,100,seh542,001,2020-04-14_10h09.51.253,MentalRotationFinal,3.1.2,60
d,1,1.955999851,1,0,100,95,1,99,i44_100_R.jpg,d,100,seh542,001,2020-04-14_10h09.51.253,MentalRotationFinal,3.1.2,60
d,1,3.105000019,1,0,100,89,1,99,i41_100_R.jpg,d,100,seh542,001,2020-04-14_10h09.51.253,MentalRotationFinal,3.1.2,60
s,1,1.296000004,1,0,100,47,1,99,i22_50.jpg,s,50,seh542,001,2020-04-14_10h09.51.253,MentalRotationFinal,3.1.2,60
s,1,2.556999922,1,0,100,90,1,99,i41_150.jpg,s,150,seh542,001,2020-04-14_10h09.51.253,MentalRotationFinal,3.1.2,60
d,1,6.372000217,1,0,100,10,1,99,i5_50_R.jpg,d,50,seh542,001,2020-04-14_10h09.51.253,MentalRotationFinal,3.1.2,60
d,1,5.338999987,1,0,100,71,1,99,i33_100_R.jpg,d,100,seh542,001,2020-04-14_10h09.51.253,MentalRotationFinal,3.1.2,60
s,1,0.970999956,1,0,100,51,1,99,i24_50.jpg,s,50,seh542,001,2020-04-14_10h09.51.253,MentalRotationFinal,3.1.2,60
d,1,6.157000065,1,0,100,23,1,99,i11_50_R.jpg,d,50,seh542,001,2020-04-14_10h09.51.253,MentalRotationFinal,3.1.2,60
s,1,2.088000059,1,0,100,61,1,99,i28_150.jpg,s,150,seh542,001,2020-04-14_10h09.51.253,MentalRotationFinal,3.1.2,60
d,1,9.171000004,1,0,100,76,1,99,i35_100_R.jpg,d,100,seh542,001,2020-04-14_10h09.51.253,MentalRotationFinal,3.1.2,60
s,1,2.486999989,1,0,100,6,1,99,i3_100.jpg,s,100,seh542,001,2020-04-14_10h09.51.253,MentalRotationFinal,3.1.2,60
s,1,1.839999914,1,0,100,2,1,99,i1_100.jpg,s,100,seh542,001,2020-04-14_10h09.51.253,MentalRotationFinal,3.1.2,60
s,1,4.870999813,1,0,100,72,1,99,i33_150.jpg,s,150,seh542,001,2020-04-14_10h09.51.253,MentalRotationFinal,3.1.2,60
d,1,6.536000013,1,0,100,44,1,99,i20_150_R.jpg,d,150,seh542,001,2020-04-14_10h09.51.253,MentalRotationFinal,3.1.2,60
d,1,1.989000082,1,0,100,14,1,99,i7_50_R.jpg,d,50,seh542,001,2020-04-14_10h09.51.253,MentalRotationFinal,3.1.2,60
d,1,3.118999958,1,0,100,46,1,99,i21_150_R.jpg,d,150,seh542,001,2020-04-14_10h09.51.253,MentalRotationFinal,3.1.2,60
s,1,4.207000017,1,0,100,20,1,99,i9_100.jpg,s,100,seh542,001,2020-04-14_10h09.51.253,MentalRotationFinal,3.1.2,60
s,1,3.687999964,1,0,100,79,1,99,i36_150.jpg,s,150,seh542,001,2020-04-14_10h09.51.253,MentalRotationFinal,3.1.2,60
s,1,5.488000154,1,0,100,70,1,99,i32_150.jpg,s,150,seh542,001,2020-04-14_10h09.51.253,MentalRotationFinal,3.1.2,60
d,1,2.43599987,1,0,100,39,1,99,i18_150_R.jpg,d,150,seh542,001,2020-04-14_10h09.51.253,MentalRotationFinal,3.1.2,60
d,1,4.30700016,1,0,100,55,1,99,i25_150_R.jpg,d,150,seh542,001,2020-04-14_10h09.51.253,MentalRotationFinal,3.1.2,60
d,1,2.039999962,1,0,100,82,1,99,i38_100_R.jpg,d,100,seh542,001,2020-04-14_10h09.51.253,MentalRotationFinal,3.1.2,60
d,1,2.369999886,1,0,100,5,1,99,i3_50_R.jpg,d,50,seh542,001,2020-04-14_10h09.51.253,MentalRotationFinal,3.1.2,60
d,1,2.571000099,1,0,100,80,1,99,i37_100_R.jpg,d,100,seh542,001,2020-04-14_10h09.51.253,MentalRotationFinal,3.1.2,60
s,1,9.237999916,1,0,100,88,1,99,i40_150.jpg,s,150,seh542,001,2020-04-14_10h09.51.253,MentalRotationFinal,3.1.2,60
s,1,1.939999819,1,0,100,60,1,99,i28_50.jpg,s,50,seh542,001,2020-04-14_10h09.51.253,MentalRotationFinal,3.1.2,60
s,1,1.272000074,1,0,100,62,1,99,i29_0.jpg,s,0,seh542,001,2020-04-14_10h09.51.253,MentalRotationFinal,3.1.2,60
d,1,5.938999891,1,0,100,42,1,99,i19_150_R.jpg,d,150,seh542,001,2020-04-14_10h09.51.253,MentalRotationFinal,3.1.2,60
s,1,2.088000059,1,0,100,22,1,99,i10_100.jpg,s,100,seh542,001,2020-04-14_10h09.51.253,MentalRotationFinal,3.1.2,60
d,1,2.489000082,1,0,100,12,1,99,i6_50_R.jpg,d,50,seh542,001,2020-04-14_10h09.51.253,MentalRotationFinal,3.1.2,60
s,1,4.455000162,1,0,100,54,1,99,i25_50.jpg,s,50,seh542,001,2020-04-14_10h09.51.253,MentalRotationFinal,3.1.2,60
s,1,1.322999954,1,0,100,40,1,99,i19_0.jpg,s,0,seh542,001,2020-04-14_10h09.51.253,MentalRotationFinal,3.1.2,60
d,1,3.020999908,1,0,100,32,1,99,i15_50_R.jpg,d,50,seh542,001,2020-04-14_10h09.51.253,MentalRotationFinal,3.1.2,60
s,1,4.404999971,1,0,100,99,1,99,i48_100.jpg,s,100,seh542,001,2020-04-14_10h09.51.253,MentalRotationFinal,3.1.2,60
