trialResp.keys,trialResp.corr,trialResp.rt,loop.thisRepN,loop.thisTrialN,loop.thisN,loop.thisIndex,loop.ran,loop.order,imagefile,corrAns,angle,participant,session,date,expName,psychopyVersion,frameRate
s,1,7.828999996,1,0,100,62,1,99,i29_0.jpg,s,0,sr4333,001,2020-04-14_10h10.01.471,MentalRotationFinal,3.1.2,60
s,1,16.90400004,1,0,100,60,1,99,i28_50.jpg,s,50,sr4333,001,2020-04-14_10h10.01.471,MentalRotationFinal,3.1.2,60
d,1,23.16899991,1,0,100,42,1,99,i19_150_R.jpg,d,150,sr4333,001,2020-04-14_10h10.01.471,MentalRotationFinal,3.1.2,60
s,0,40.60700011,1,0,100,69,1,99,i32_100_R.jpg,d,100,sr4333,001,2020-04-14_10h10.01.471,MentalRotationFinal,3.1.2,60
s,1,25.42199993,1,0,100,61,1,99,i28_150.jpg,s,150,sr4333,001,2020-04-14_10h10.01.471,MentalRotationFinal,3.1.2,60
s,1,11.45300007,1,0,100,41,1,99,i19_50.jpg,s,50,sr4333,001,2020-04-14_10h10.01.471,MentalRotationFinal,3.1.2,60
d,1,9.308000088,1,0,100,52,1,99,i24_150_R.jpg,d,150,sr4333,001,2020-04-14_10h10.01.471,MentalRotationFinal,3.1.2,60
d,0,23.13800001,1,0,100,83,1,99,i38_150.jpg,s,150,sr4333,001,2020-04-14_10h10.01.471,MentalRotationFinal,3.1.2,60
d,1,8.855999947,1,0,100,91,1,99,i42_100_R.jpg,d,100,sr4333,001,2020-04-14_10h10.01.471,MentalRotationFinal,3.1.2,60
s,1,7.343000174,1,0,100,94,1,99,i44_0.jpg,s,0,sr4333,001,2020-04-14_10h10.01.471,MentalRotationFinal,3.1.2,60
d,0,29.39100003,1,0,100,68,1,99,i31_150.jpg,s,150,sr4333,001,2020-04-14_10h10.01.471,MentalRotationFinal,3.1.2,60
d,1,13.85899997,1,0,100,82,1,99,i38_100_R.jpg,d,100,sr4333,001,2020-04-14_10h10.01.471,MentalRotationFinal,3.1.2,60
d,1,6.041999817,1,0,100,59,1,99,i27_150_R.jpg,d,150,sr4333,001,2020-04-14_10h10.01.471,MentalRotationFinal,3.1.2,60
s,1,16.5769999,1,0,100,70,1,99,i32_150.jpg,s,150,sr4333,001,2020-04-14_10h10.01.471,MentalRotationFinal,3.1.2,60
s,1,16.773,1,0,100,86,1,99,i39_150.jpg,s,150,sr4333,001,2020-04-14_10h10.01.471,MentalRotationFinal,3.1.2,60
s,1,25.6730001,1,0,100,13,1,99,i6_100.jpg,s,100,sr4333,001,2020-04-14_10h10.01.471,MentalRotationFinal,3.1.2,60
s,0,21.85500002,1,0,100,67,1,99,i31_100_R.jpg,d,100,sr4333,001,2020-04-14_10h10.01.471,MentalRotationFinal,3.1.2,60
s,1,9.496999979,1,0,100,6,1,99,i3_100.jpg,s,100,sr4333,001,2020-04-14_10h10.01.471,MentalRotationFinal,3.1.2,60
d,1,24.14300013,1,0,100,50,1,99,i23_150_R.jpg,d,150,sr4333,001,2020-04-14_10h10.01.471,MentalRotationFinal,3.1.2,60
d,1,24.95299983,1,0,100,25,1,99,i12_50_R.jpg,d,50,sr4333,001,2020-04-14_10h10.01.471,MentalRotationFinal,3.1.2,60
s,1,16.17399979,1,0,100,79,1,99,i36_150.jpg,s,150,sr4333,001,2020-04-14_10h10.01.471,MentalRotationFinal,3.1.2,60
d,1,13.17599988,1,0,100,87,1,99,i40_100_R.jpg,d,100,sr4333,001,2020-04-14_10h10.01.471,MentalRotationFinal,3.1.2,60
d,1,16.80999994,1,0,100,14,1,99,i7_50_R.jpg,d,50,sr4333,001,2020-04-14_10h10.01.471,MentalRotationFinal,3.1.2,60
s,0,6.809999943,1,0,100,37,1,99,i17_150_R.jpg,d,150,sr4333,001,2020-04-14_10h10.01.471,MentalRotationFinal,3.1.2,60
s,1,11.80900002,1,0,100,40,1,99,i19_0.jpg,s,0,sr4333,001,2020-04-14_10h10.01.471,MentalRotationFinal,3.1.2,60
d,1,19.04299998,1,0,100,89,1,99,i41_100_R.jpg,d,100,sr4333,001,2020-04-14_10h10.01.471,MentalRotationFinal,3.1.2,60
d,1,21.47299981,1,0,100,78,1,99,i36_100_R.jpg,d,100,sr4333,001,2020-04-14_10h10.01.471,MentalRotationFinal,3.1.2,60
s,1,20.1099999,1,0,100,8,1,99,i4_100.jpg,s,100,sr4333,001,2020-04-14_10h10.01.471,MentalRotationFinal,3.1.2,60
s,1,7.546999931,1,0,100,24,1,99,i11_100.jpg,s,100,sr4333,001,2020-04-14_10h10.01.471,MentalRotationFinal,3.1.2,60
s,1,2.481999874,1,0,100,0,1,99,i1_0.jpg,s,0,sr4333,001,2020-04-14_10h10.01.471,MentalRotationFinal,3.1.2,60
s,1,19.04699993,1,0,100,88,1,99,i40_150.jpg,s,150,sr4333,001,2020-04-14_10h10.01.471,MentalRotationFinal,3.1.2,60
d,1,14.77999997,1,0,100,1,1,99,i1_50_R.jpg,d,50,sr4333,001,2020-04-14_10h10.01.471,MentalRotationFinal,3.1.2,60
d,1,14.27799988,1,0,100,16,1,99,i8_50_R.jpg,d,50,sr4333,001,2020-04-14_10h10.01.471,MentalRotationFinal,3.1.2,60
s,1,1.447000027,1,0,100,29,1,99,i14_0.jpg,s,0,sr4333,001,2020-04-14_10h10.01.471,MentalRotationFinal,3.1.2,60
d,0,10.81299996,1,0,100,72,1,99,i33_150.jpg,s,150,sr4333,001,2020-04-14_10h10.01.471,MentalRotationFinal,3.1.2,60
s,1,11.31299996,1,0,100,92,1,99,i42_150.jpg,s,150,sr4333,001,2020-04-14_10h10.01.471,MentalRotationFinal,3.1.2,60
d,1,10.61400008,1,0,100,30,1,99,i14_50_R.jpg,d,50,sr4333,001,2020-04-14_10h10.01.471,MentalRotationFinal,3.1.2,60
s,1,3.713999987,1,0,100,47,1,99,i22_50.jpg,s,50,sr4333,001,2020-04-14_10h10.01.471,MentalRotationFinal,3.1.2,60
s,1,13.44799995,1,0,100,64,1,99,i29_150.jpg,s,150,sr4333,001,2020-04-14_10h10.01.471,MentalRotationFinal,3.1.2,60
s,0,17.38000011,1,0,100,23,1,99,i11_50_R.jpg,d,50,sr4333,001,2020-04-14_10h10.01.471,MentalRotationFinal,3.1.2,60
s,1,12.14300013,1,0,100,74,1,99,i34_150.jpg,s,150,sr4333,001,2020-04-14_10h10.01.471,MentalRotationFinal,3.1.2,60
s,1,9.979999781,1,0,100,11,1,99,i5_100.jpg,s,100,sr4333,001,2020-04-14_10h10.01.471,MentalRotationFinal,3.1.2,60
d,1,4.515000105,1,0,100,19,1,99,i9_50_R.jpg,d,50,sr4333,001,2020-04-14_10h10.01.471,MentalRotationFinal,3.1.2,60
d,1,4.082000017,1,0,100,71,1,99,i33_100_R.jpg,d,100,sr4333,001,2020-04-14_10h10.01.471,MentalRotationFinal,3.1.2,60
s,1,5.048000097,1,0,100,90,1,99,i41_150.jpg,s,150,sr4333,001,2020-04-14_10h10.01.471,MentalRotationFinal,3.1.2,60
s,1,4.316999912,1,0,100,56,1,99,i26_50.jpg,s,50,sr4333,001,2020-04-14_10h10.01.471,MentalRotationFinal,3.1.2,60
s,0,7.414000034,1,0,100,10,1,99,i5_50_R.jpg,d,50,sr4333,001,2020-04-14_10h10.01.471,MentalRotationFinal,3.1.2,60
s,1,4.048000097,1,0,100,2,1,99,i1_100.jpg,s,100,sr4333,001,2020-04-14_10h10.01.471,MentalRotationFinal,3.1.2,60
s,0,4.447999954,1,0,100,46,1,99,i21_150_R.jpg,d,150,sr4333,001,2020-04-14_10h10.01.471,MentalRotationFinal,3.1.2,60
s,0,4.217000008,1,0,100,57,1,99,i26_150_R.jpg,d,150,sr4333,001,2020-04-14_10h10.01.471,MentalRotationFinal,3.1.2,60
s,1,3.081999779,1,0,100,38,1,99,i18_50.jpg,s,50,sr4333,001,2020-04-14_10h10.01.471,MentalRotationFinal,3.1.2,60
d,0,13.84799981,1,0,100,20,1,99,i9_100.jpg,s,100,sr4333,001,2020-04-14_10h10.01.471,MentalRotationFinal,3.1.2,60
d,1,5.480000019,1,0,100,73,1,99,i34_100_R.jpg,d,100,sr4333,001,2020-04-14_10h10.01.471,MentalRotationFinal,3.1.2,60
d,1,6.415999889,1,0,100,3,1,99,i2_50_R.jpg,d,50,sr4333,001,2020-04-14_10h10.01.471,MentalRotationFinal,3.1.2,60
s,0,3.911999941,1,0,100,33,1,99,i15_150_R.jpg,d,150,sr4333,001,2020-04-14_10h10.01.471,MentalRotationFinal,3.1.2,60
s,1,1.615999937,1,0,100,84,1,99,i39_0.jpg,s,0,sr4333,001,2020-04-14_10h10.01.471,MentalRotationFinal,3.1.2,60
s,1,2.01699996,1,0,100,34,1,99,i16_50.jpg,s,50,sr4333,001,2020-04-14_10h10.01.471,MentalRotationFinal,3.1.2,60
s,1,2.215999842,1,0,100,49,1,99,i23_50.jpg,s,50,sr4333,001,2020-04-14_10h10.01.471,MentalRotationFinal,3.1.2,60
d,1,5.981000185,1,0,100,76,1,99,i35_100_R.jpg,d,100,sr4333,001,2020-04-14_10h10.01.471,MentalRotationFinal,3.1.2,60
s,1,3.416000128,1,0,100,97,1,99,i46_100.jpg,s,100,sr4333,001,2020-04-14_10h10.01.471,MentalRotationFinal,3.1.2,60
d,1,3.947999954,1,0,100,28,1,99,i13_150_R.jpg,d,150,sr4333,001,2020-04-14_10h10.01.471,MentalRotationFinal,3.1.2,60
s,1,13.91400003,1,0,100,17,1,99,i8_100.jpg,s,100,sr4333,001,2020-04-14_10h10.01.471,MentalRotationFinal,3.1.2,60
d,1,4.481000185,1,0,100,12,1,99,i6_50_R.jpg,d,50,sr4333,001,2020-04-14_10h10.01.471,MentalRotationFinal,3.1.2,60
d,1,2.57799983,1,0,100,27,1,99,i13_50_R.jpg,d,50,sr4333,001,2020-04-14_10h10.01.471,MentalRotationFinal,3.1.2,60
d,1,6.282000065,1,0,100,5,1,99,i3_50_R.jpg,d,50,sr4333,001,2020-04-14_10h10.01.471,MentalRotationFinal,3.1.2,60
s,1,4.31400013,1,0,100,45,1,99,i21_50.jpg,s,50,sr4333,001,2020-04-14_10h10.01.471,MentalRotationFinal,3.1.2,60
s,1,6.18200016,1,0,100,66,1,99,i30_150.jpg,s,150,sr4333,001,2020-04-14_10h10.01.471,MentalRotationFinal,3.1.2,60
s,1,2.315999985,1,0,100,53,1,99,i25_0.jpg,s,0,sr4333,001,2020-04-14_10h10.01.471,MentalRotationFinal,3.1.2,60
d,1,13.61500001,1,0,100,95,1,99,i44_100_R.jpg,d,100,sr4333,001,2020-04-14_10h10.01.471,MentalRotationFinal,3.1.2,60
s,1,10.88100004,1,0,100,77,1,99,i35_150.jpg,s,150,sr4333,001,2020-04-14_10h10.01.471,MentalRotationFinal,3.1.2,60
s,0,2.912000179,1,0,100,35,1,99,i16_150_R.jpg,d,150,sr4333,001,2020-04-14_10h10.01.471,MentalRotationFinal,3.1.2,60
s,1,5.315000057,1,0,100,65,1,99,i30_50.jpg,s,50,sr4333,001,2020-04-14_10h10.01.471,MentalRotationFinal,3.1.2,60
d,1,1.447999954,1,0,100,32,1,99,i15_50_R.jpg,d,50,sr4333,001,2020-04-14_10h10.01.471,MentalRotationFinal,3.1.2,60
d,0,11.148,1,0,100,58,1,99,i27_50.jpg,s,50,sr4333,001,2020-04-14_10h10.01.471,MentalRotationFinal,3.1.2,60
s,1,1.582000017,1,0,100,18,1,99,i9_0.jpg,s,0,sr4333,001,2020-04-14_10h10.01.471,MentalRotationFinal,3.1.2,60
d,0,3.549999952,1,0,100,98,1,99,i47_100.jpg,s,100,sr4333,001,2020-04-14_10h10.01.471,MentalRotationFinal,3.1.2,60
d,1,9.780999899,1,0,100,39,1,99,i18_150_R.jpg,d,150,sr4333,001,2020-04-14_10h10.01.471,MentalRotationFinal,3.1.2,60
s,1,1.148000002,1,0,100,54,1,99,i25_50.jpg,s,50,sr4333,001,2020-04-14_10h10.01.471,MentalRotationFinal,3.1.2,60
d,1,8.450000048,1,0,100,93,1,99,i43_100_R.jpg,d,100,sr4333,001,2020-04-14_10h10.01.471,MentalRotationFinal,3.1.2,60
s,1,2.746999979,1,0,100,36,1,99,i17_50.jpg,s,50,sr4333,001,2020-04-14_10h10.01.471,MentalRotationFinal,3.1.2,60
s,0,7.548000097,1,0,100,7,1,99,i4_50_R.jpg,d,50,sr4333,001,2020-04-14_10h10.01.471,MentalRotationFinal,3.1.2,60
s,1,3.050000191,1,0,100,43,1,99,i20_50.jpg,s,50,sr4333,001,2020-04-14_10h10.01.471,MentalRotationFinal,3.1.2,60
s,1,2.08100009,1,0,100,63,1,99,i29_50.jpg,s,50,sr4333,001,2020-04-14_10h10.01.471,MentalRotationFinal,3.1.2,60
d,0,4.414999962,1,0,100,15,1,99,i7_100.jpg,s,100,sr4333,001,2020-04-14_10h10.01.471,MentalRotationFinal,3.1.2,60
d,1,10.64700007,1,0,100,55,1,99,i25_150_R.jpg,d,150,sr4333,001,2020-04-14_10h10.01.471,MentalRotationFinal,3.1.2,60
s,1,4.94900012,1,0,100,4,1,99,i2_100.jpg,s,100,sr4333,001,2020-04-14_10h10.01.471,MentalRotationFinal,3.1.2,60
d,1,7.914999962,1,0,100,44,1,99,i20_150_R.jpg,d,150,sr4333,001,2020-04-14_10h10.01.471,MentalRotationFinal,3.1.2,60
s,0,5.848999977,1,0,100,31,1,99,i14_150_R.jpg,d,150,sr4333,001,2020-04-14_10h10.01.471,MentalRotationFinal,3.1.2,60
s,1,5.279999971,1,0,100,22,1,99,i10_100.jpg,s,100,sr4333,001,2020-04-14_10h10.01.471,MentalRotationFinal,3.1.2,60
d,1,6.513999939,1,0,100,80,1,99,i37_100_R.jpg,d,100,sr4333,001,2020-04-14_10h10.01.471,MentalRotationFinal,3.1.2,60
d,1,7.747999907,1,0,100,85,1,99,i39_100_R.jpg,d,100,sr4333,001,2020-04-14_10h10.01.471,MentalRotationFinal,3.1.2,60
s,1,3.179999828,1,0,100,99,1,99,i48_100.jpg,s,100,sr4333,001,2020-04-14_10h10.01.471,MentalRotationFinal,3.1.2,60
d,1,2.983999968,1,0,100,48,1,99,i22_150_R.jpg,d,150,sr4333,001,2020-04-14_10h10.01.471,MentalRotationFinal,3.1.2,60
s,1,1.61500001,1,0,100,75,1,99,i35_0.jpg,s,0,sr4333,001,2020-04-14_10h10.01.471,MentalRotationFinal,3.1.2,60
s,1,0.882999897,1,0,100,9,1,99,i5_0.jpg,s,0,sr4333,001,2020-04-14_10h10.01.471,MentalRotationFinal,3.1.2,60
s,1,3.750999928,1,0,100,26,1,99,i12_100.jpg,s,100,sr4333,001,2020-04-14_10h10.01.471,MentalRotationFinal,3.1.2,60
d,1,2.747999907,1,0,100,96,1,99,i45_100_R.jpg,d,100,sr4333,001,2020-04-14_10h10.01.471,MentalRotationFinal,3.1.2,60
d,0,5.082000017,1,0,100,81,1,99,i37_150.jpg,s,150,sr4333,001,2020-04-14_10h10.01.471,MentalRotationFinal,3.1.2,60
s,1,2.414000034,1,0,100,51,1,99,i24_50.jpg,s,50,sr4333,001,2020-04-14_10h10.01.471,MentalRotationFinal,3.1.2,60
d,1,11.71600008,1,0,100,21,1,99,i10_50_R.jpg,d,50,sr4333,001,2020-04-14_10h10.01.471,MentalRotationFinal,3.1.2,60
