trialResp.keys,trialResp.corr,trialResp.rt,loop.thisRepN,loop.thisTrialN,loop.thisN,loop.thisIndex,loop.ran,loop.order,imagefile,corrAns,angle,participant,session,date,expName,psychopyVersion,frameRate
s,1,7.515000105,1,0,100,11,1,99,i5_100.jpg,s,100,vnn214,001,2020-04-14_10h09.36.780,MentalRotationFinal,3.1.2,60
d,1,6.701000214,1,0,100,21,1,99,i10_50_R.jpg,d,50,vnn214,001,2020-04-14_10h09.36.780,MentalRotationFinal,3.1.2,60
s,1,4.608999968,1,0,100,54,1,99,i25_50.jpg,s,50,vnn214,001,2020-04-14_10h09.36.780,MentalRotationFinal,3.1.2,60
d,1,3.970000029,1,0,100,19,1,99,i9_50_R.jpg,d,50,vnn214,001,2020-04-14_10h09.36.780,MentalRotationFinal,3.1.2,60
d,1,6.802999973,1,0,100,10,1,99,i5_50_R.jpg,d,50,vnn214,001,2020-04-14_10h09.36.780,MentalRotationFinal,3.1.2,60
s,1,6.169000149,1,0,100,61,1,99,i28_150.jpg,s,150,vnn214,001,2020-04-14_10h09.36.780,MentalRotationFinal,3.1.2,60
s,1,11.48000002,1,0,100,72,1,99,i33_150.jpg,s,150,vnn214,001,2020-04-14_10h09.36.780,MentalRotationFinal,3.1.2,60
s,1,2.304999828,1,0,100,38,1,99,i18_50.jpg,s,50,vnn214,001,2020-04-14_10h09.36.780,MentalRotationFinal,3.1.2,60
d,1,6.111000061,1,0,100,85,1,99,i39_100_R.jpg,d,100,vnn214,001,2020-04-14_10h09.36.780,MentalRotationFinal,3.1.2,60
d,1,8.085999966,1,0,100,1,1,99,i1_50_R.jpg,d,50,vnn214,001,2020-04-14_10h09.36.780,MentalRotationFinal,3.1.2,60
d,1,4.648000002,1,0,100,14,1,99,i7_50_R.jpg,d,50,vnn214,001,2020-04-14_10h09.36.780,MentalRotationFinal,3.1.2,60
d,1,14.55999994,1,0,100,7,1,99,i4_50_R.jpg,d,50,vnn214,001,2020-04-14_10h09.36.780,MentalRotationFinal,3.1.2,60
s,1,3.042999983,1,0,100,63,1,99,i29_50.jpg,s,50,vnn214,001,2020-04-14_10h09.36.780,MentalRotationFinal,3.1.2,60
d,1,6.888000011,1,0,100,82,1,99,i38_100_R.jpg,d,100,vnn214,001,2020-04-14_10h09.36.780,MentalRotationFinal,3.1.2,60
d,1,6.604000092,1,0,100,31,1,99,i14_150_R.jpg,d,150,vnn214,001,2020-04-14_10h09.36.780,MentalRotationFinal,3.1.2,60
d,1,6.19900012,1,0,100,71,1,99,i33_100_R.jpg,d,100,vnn214,001,2020-04-14_10h09.36.780,MentalRotationFinal,3.1.2,60
s,1,2.342000008,1,0,100,43,1,99,i20_50.jpg,s,50,vnn214,001,2020-04-14_10h09.36.780,MentalRotationFinal,3.1.2,60
d,1,4.279999971,1,0,100,3,1,99,i2_50_R.jpg,d,50,vnn214,001,2020-04-14_10h09.36.780,MentalRotationFinal,3.1.2,60
d,1,6.085000038,1,0,100,59,1,99,i27_150_R.jpg,d,150,vnn214,001,2020-04-14_10h09.36.780,MentalRotationFinal,3.1.2,60
s,1,2.257000208,1,0,100,36,1,99,i17_50.jpg,s,50,vnn214,001,2020-04-14_10h09.36.780,MentalRotationFinal,3.1.2,60
s,1,8.723999977,1,0,100,15,1,99,i7_100.jpg,s,100,vnn214,001,2020-04-14_10h09.36.780,MentalRotationFinal,3.1.2,60
s,1,16.44500017,1,0,100,68,1,99,i31_150.jpg,s,150,vnn214,001,2020-04-14_10h09.36.780,MentalRotationFinal,3.1.2,60
s,1,4.577000141,1,0,100,84,1,99,i39_0.jpg,s,0,vnn214,001,2020-04-14_10h09.36.780,MentalRotationFinal,3.1.2,60
s,1,23.91799998,1,0,100,74,1,99,i34_150.jpg,s,150,vnn214,001,2020-04-14_10h09.36.780,MentalRotationFinal,3.1.2,60
s,1,2.223999977,1,0,100,2,1,99,i1_100.jpg,s,100,vnn214,001,2020-04-14_10h09.36.780,MentalRotationFinal,3.1.2,60
s,1,7.470000029,1,0,100,8,1,99,i4_100.jpg,s,100,vnn214,001,2020-04-14_10h09.36.780,MentalRotationFinal,3.1.2,60
d,1,2.756999969,1,0,100,80,1,99,i37_100_R.jpg,d,100,vnn214,001,2020-04-14_10h09.36.780,MentalRotationFinal,3.1.2,60
d,1,12.11199999,1,0,100,39,1,99,i18_150_R.jpg,d,150,vnn214,001,2020-04-14_10h09.36.780,MentalRotationFinal,3.1.2,60
d,1,4.225000143,1,0,100,33,1,99,i15_150_R.jpg,d,150,vnn214,001,2020-04-14_10h09.36.780,MentalRotationFinal,3.1.2,60
d,1,6.019000053,1,0,100,25,1,99,i12_50_R.jpg,d,50,vnn214,001,2020-04-14_10h09.36.780,MentalRotationFinal,3.1.2,60
s,1,2.036000013,1,0,100,47,1,99,i22_50.jpg,s,50,vnn214,001,2020-04-14_10h09.36.780,MentalRotationFinal,3.1.2,60
s,1,3.825999975,1,0,100,18,1,99,i9_0.jpg,s,0,vnn214,001,2020-04-14_10h09.36.780,MentalRotationFinal,3.1.2,60
s,1,2.222999811,1,0,100,49,1,99,i23_50.jpg,s,50,vnn214,001,2020-04-14_10h09.36.780,MentalRotationFinal,3.1.2,60
s,1,1.953000069,1,0,100,58,1,99,i27_50.jpg,s,50,vnn214,001,2020-04-14_10h09.36.780,MentalRotationFinal,3.1.2,60
d,1,3.009000063,1,0,100,27,1,99,i13_50_R.jpg,d,50,vnn214,001,2020-04-14_10h09.36.780,MentalRotationFinal,3.1.2,60
s,0,11.74699998,1,0,100,37,1,99,i17_150_R.jpg,d,150,vnn214,001,2020-04-14_10h09.36.780,MentalRotationFinal,3.1.2,60
d,1,18.83800006,1,0,100,16,1,99,i8_50_R.jpg,d,50,vnn214,001,2020-04-14_10h09.36.780,MentalRotationFinal,3.1.2,60
s,1,21.27799988,1,0,100,79,1,99,i36_150.jpg,s,150,vnn214,001,2020-04-14_10h09.36.780,MentalRotationFinal,3.1.2,60
d,1,6.251999855,1,0,100,95,1,99,i44_100_R.jpg,d,100,vnn214,001,2020-04-14_10h09.36.780,MentalRotationFinal,3.1.2,60
d,1,7.623999834,1,0,100,76,1,99,i35_100_R.jpg,d,100,vnn214,001,2020-04-14_10h09.36.780,MentalRotationFinal,3.1.2,60
s,1,3.577000141,1,0,100,20,1,99,i9_100.jpg,s,100,vnn214,001,2020-04-14_10h09.36.780,MentalRotationFinal,3.1.2,60
s,1,3.245000124,1,0,100,64,1,99,i29_150.jpg,s,150,vnn214,001,2020-04-14_10h09.36.780,MentalRotationFinal,3.1.2,60
s,1,3.039000034,1,0,100,9,1,99,i5_0.jpg,s,0,vnn214,001,2020-04-14_10h09.36.780,MentalRotationFinal,3.1.2,60
d,1,4.892999887,1,0,100,73,1,99,i34_100_R.jpg,d,100,vnn214,001,2020-04-14_10h09.36.780,MentalRotationFinal,3.1.2,60
s,1,8.908000231,1,0,100,66,1,99,i30_150.jpg,s,150,vnn214,001,2020-04-14_10h09.36.780,MentalRotationFinal,3.1.2,60
d,1,5.313999891,1,0,100,93,1,99,i43_100_R.jpg,d,100,vnn214,001,2020-04-14_10h09.36.780,MentalRotationFinal,3.1.2,60
s,1,4.779000044,1,0,100,4,1,99,i2_100.jpg,s,100,vnn214,001,2020-04-14_10h09.36.780,MentalRotationFinal,3.1.2,60
d,1,9.077000141,1,0,100,78,1,99,i36_100_R.jpg,d,100,vnn214,001,2020-04-14_10h09.36.780,MentalRotationFinal,3.1.2,60
s,0,5.564999819,1,0,100,50,1,99,i23_150_R.jpg,d,150,vnn214,001,2020-04-14_10h09.36.780,MentalRotationFinal,3.1.2,60
d,1,8.09100008,1,0,100,57,1,99,i26_150_R.jpg,d,150,vnn214,001,2020-04-14_10h09.36.780,MentalRotationFinal,3.1.2,60
d,1,8.186000109,1,0,100,55,1,99,i25_150_R.jpg,d,150,vnn214,001,2020-04-14_10h09.36.780,MentalRotationFinal,3.1.2,60
s,1,3.375,1,0,100,62,1,99,i29_0.jpg,s,0,vnn214,001,2020-04-14_10h09.36.780,MentalRotationFinal,3.1.2,60
s,1,5.879000187,1,0,100,22,1,99,i10_100.jpg,s,100,vnn214,001,2020-04-14_10h09.36.780,MentalRotationFinal,3.1.2,60
d,0,13.13999987,1,0,100,13,1,99,i6_100.jpg,s,100,vnn214,001,2020-04-14_10h09.36.780,MentalRotationFinal,3.1.2,60
d,0,4.710000038,1,0,100,56,1,99,i26_50.jpg,s,50,vnn214,001,2020-04-14_10h09.36.780,MentalRotationFinal,3.1.2,60
d,1,2.928999901,1,0,100,30,1,99,i14_50_R.jpg,d,50,vnn214,001,2020-04-14_10h09.36.780,MentalRotationFinal,3.1.2,60
d,1,4.427999973,1,0,100,12,1,99,i6_50_R.jpg,d,50,vnn214,001,2020-04-14_10h09.36.780,MentalRotationFinal,3.1.2,60
s,1,1.72300005,1,0,100,51,1,99,i24_50.jpg,s,50,vnn214,001,2020-04-14_10h09.36.780,MentalRotationFinal,3.1.2,60
s,1,7.487999916,1,0,100,65,1,99,i30_50.jpg,s,50,vnn214,001,2020-04-14_10h09.36.780,MentalRotationFinal,3.1.2,60
d,1,8.541999817,1,0,100,87,1,99,i40_100_R.jpg,d,100,vnn214,001,2020-04-14_10h09.36.780,MentalRotationFinal,3.1.2,60
s,1,3.237999916,1,0,100,94,1,99,i44_0.jpg,s,0,vnn214,001,2020-04-14_10h09.36.780,MentalRotationFinal,3.1.2,60
s,1,3.373999834,1,0,100,83,1,99,i38_150.jpg,s,150,vnn214,001,2020-04-14_10h09.36.780,MentalRotationFinal,3.1.2,60
s,1,7.20600009,1,0,100,17,1,99,i8_100.jpg,s,100,vnn214,001,2020-04-14_10h09.36.780,MentalRotationFinal,3.1.2,60
d,1,4.577000141,1,0,100,67,1,99,i31_100_R.jpg,d,100,vnn214,001,2020-04-14_10h09.36.780,MentalRotationFinal,3.1.2,60
s,1,1.96600008,1,0,100,53,1,99,i25_0.jpg,s,0,vnn214,001,2020-04-14_10h09.36.780,MentalRotationFinal,3.1.2,60
s,1,2.424000025,1,0,100,0,1,99,i1_0.jpg,s,0,vnn214,001,2020-04-14_10h09.36.780,MentalRotationFinal,3.1.2,60
s,1,2.572999954,1,0,100,70,1,99,i32_150.jpg,s,150,vnn214,001,2020-04-14_10h09.36.780,MentalRotationFinal,3.1.2,60
d,1,4.47300005,1,0,100,96,1,99,i45_100_R.jpg,d,100,vnn214,001,2020-04-14_10h09.36.780,MentalRotationFinal,3.1.2,60
s,1,17.70000005,1,0,100,81,1,99,i37_150.jpg,s,150,vnn214,001,2020-04-14_10h09.36.780,MentalRotationFinal,3.1.2,60
d,1,3.709000111,1,0,100,52,1,99,i24_150_R.jpg,d,150,vnn214,001,2020-04-14_10h09.36.780,MentalRotationFinal,3.1.2,60
s,1,1.699999809,1,0,100,29,1,99,i14_0.jpg,s,0,vnn214,001,2020-04-14_10h09.36.780,MentalRotationFinal,3.1.2,60
d,1,8.203999996,1,0,100,69,1,99,i32_100_R.jpg,d,100,vnn214,001,2020-04-14_10h09.36.780,MentalRotationFinal,3.1.2,60
s,1,2.555999994,1,0,100,60,1,99,i28_50.jpg,s,50,vnn214,001,2020-04-14_10h09.36.780,MentalRotationFinal,3.1.2,60
s,1,6.000999928,1,0,100,97,1,99,i46_100.jpg,s,100,vnn214,001,2020-04-14_10h09.36.780,MentalRotationFinal,3.1.2,60
s,1,4.780999899,1,0,100,24,1,99,i11_100.jpg,s,100,vnn214,001,2020-04-14_10h09.36.780,MentalRotationFinal,3.1.2,60
s,1,2.036999941,1,0,100,45,1,99,i21_50.jpg,s,50,vnn214,001,2020-04-14_10h09.36.780,MentalRotationFinal,3.1.2,60
d,1,2.667999983,1,0,100,42,1,99,i19_150_R.jpg,d,150,vnn214,001,2020-04-14_10h09.36.780,MentalRotationFinal,3.1.2,60
s,1,2.394999981,1,0,100,6,1,99,i3_100.jpg,s,100,vnn214,001,2020-04-14_10h09.36.780,MentalRotationFinal,3.1.2,60
s,1,7.099999905,1,0,100,88,1,99,i40_150.jpg,s,150,vnn214,001,2020-04-14_10h09.36.780,MentalRotationFinal,3.1.2,60
s,1,2.906000137,1,0,100,86,1,99,i39_150.jpg,s,150,vnn214,001,2020-04-14_10h09.36.780,MentalRotationFinal,3.1.2,60
d,0,1.702000141,1,0,100,90,1,99,i41_150.jpg,s,150,vnn214,001,2020-04-14_10h09.36.780,MentalRotationFinal,3.1.2,60
s,1,1.620000124,1,0,100,75,1,99,i35_0.jpg,s,0,vnn214,001,2020-04-14_10h09.36.780,MentalRotationFinal,3.1.2,60
s,1,3.625999928,1,0,100,99,1,99,i48_100.jpg,s,100,vnn214,001,2020-04-14_10h09.36.780,MentalRotationFinal,3.1.2,60
d,1,3.760999918,1,0,100,23,1,99,i11_50_R.jpg,d,50,vnn214,001,2020-04-14_10h09.36.780,MentalRotationFinal,3.1.2,60
s,1,3.871999979,1,0,100,34,1,99,i16_50.jpg,s,50,vnn214,001,2020-04-14_10h09.36.780,MentalRotationFinal,3.1.2,60
d,1,2.258000135,1,0,100,48,1,99,i22_150_R.jpg,d,150,vnn214,001,2020-04-14_10h09.36.780,MentalRotationFinal,3.1.2,60
d,1,4.095000029,1,0,100,32,1,99,i15_50_R.jpg,d,50,vnn214,001,2020-04-14_10h09.36.780,MentalRotationFinal,3.1.2,60
s,1,2.742000103,1,0,100,41,1,99,i19_50.jpg,s,50,vnn214,001,2020-04-14_10h09.36.780,MentalRotationFinal,3.1.2,60
s,1,3.724999905,1,0,100,98,1,99,i47_100.jpg,s,100,vnn214,001,2020-04-14_10h09.36.780,MentalRotationFinal,3.1.2,60
d,1,8.723999977,1,0,100,89,1,99,i41_100_R.jpg,d,100,vnn214,001,2020-04-14_10h09.36.780,MentalRotationFinal,3.1.2,60
s,1,1.63499999,1,0,100,40,1,99,i19_0.jpg,s,0,vnn214,001,2020-04-14_10h09.36.780,MentalRotationFinal,3.1.2,60
d,1,4.947000027,1,0,100,46,1,99,i21_150_R.jpg,d,150,vnn214,001,2020-04-14_10h09.36.780,MentalRotationFinal,3.1.2,60
s,1,5.478999853,1,0,100,77,1,99,i35_150.jpg,s,150,vnn214,001,2020-04-14_10h09.36.780,MentalRotationFinal,3.1.2,60
d,1,2.659999847,1,0,100,5,1,99,i3_50_R.jpg,d,50,vnn214,001,2020-04-14_10h09.36.780,MentalRotationFinal,3.1.2,60
s,1,9.710000038,1,0,100,92,1,99,i42_150.jpg,s,150,vnn214,001,2020-04-14_10h09.36.780,MentalRotationFinal,3.1.2,60
d,1,6.41899991,1,0,100,28,1,99,i13_150_R.jpg,d,150,vnn214,001,2020-04-14_10h09.36.780,MentalRotationFinal,3.1.2,60
d,1,4.865999937,1,0,100,35,1,99,i16_150_R.jpg,d,150,vnn214,001,2020-04-14_10h09.36.780,MentalRotationFinal,3.1.2,60
s,1,1.655999899,1,0,100,26,1,99,i12_100.jpg,s,100,vnn214,001,2020-04-14_10h09.36.780,MentalRotationFinal,3.1.2,60
d,1,4.764999866,1,0,100,44,1,99,i20_150_R.jpg,d,150,vnn214,001,2020-04-14_10h09.36.780,MentalRotationFinal,3.1.2,60
d,1,6.148999929,1,0,100,91,1,99,i42_100_R.jpg,d,100,vnn214,001,2020-04-14_10h09.36.780,MentalRotationFinal,3.1.2,60
