trialResp.keys,trialResp.corr,trialResp.rt,loop.thisRepN,loop.thisTrialN,loop.thisN,loop.thisIndex,loop.ran,loop.order,imagefile,corrAns,angle,participant,session,date,expName,psychopyVersion,frameRate
d,1,11.20500016,1,0,100,46,1,99,i21_150_R.jpg,d,150,yc2345,001,2020-04-14_10h11.36.179,MentalRotationFinal,3.1.2,60
d,1,18.38199997,1,0,100,27,1,99,i13_50_R.jpg,d,50,yc2345,001,2020-04-14_10h11.36.179,MentalRotationFinal,3.1.2,60
d,1,18.2019999,1,0,100,21,1,99,i10_50_R.jpg,d,50,yc2345,001,2020-04-14_10h11.36.179,MentalRotationFinal,3.1.2,60
d,1,9.58100009,1,0,100,7,1,99,i4_50_R.jpg,d,50,yc2345,001,2020-04-14_10h11.36.179,MentalRotationFinal,3.1.2,60
d,1,32.85899997,1,0,100,69,1,99,i32_100_R.jpg,d,100,yc2345,001,2020-04-14_10h11.36.179,MentalRotationFinal,3.1.2,60
s,0,13.04500008,1,0,100,78,1,99,i36_100_R.jpg,d,100,yc2345,001,2020-04-14_10h11.36.179,MentalRotationFinal,3.1.2,60
s,0,16.25200009,1,0,100,59,1,99,i27_150_R.jpg,d,150,yc2345,001,2020-04-14_10h11.36.179,MentalRotationFinal,3.1.2,60
d,1,12.29699993,1,0,100,85,1,99,i39_100_R.jpg,d,100,yc2345,001,2020-04-14_10h11.36.179,MentalRotationFinal,3.1.2,60
s,1,5.582999945,1,0,100,84,1,99,i39_0.jpg,s,0,yc2345,001,2020-04-14_10h11.36.179,MentalRotationFinal,3.1.2,60
s,1,50.96099997,1,0,100,92,1,99,i42_150.jpg,s,150,yc2345,001,2020-04-14_10h11.36.179,MentalRotationFinal,3.1.2,60
s,1,10.68400002,1,0,100,4,1,99,i2_100.jpg,s,100,yc2345,001,2020-04-14_10h11.36.179,MentalRotationFinal,3.1.2,60
d,1,9.208999872,1,0,100,42,1,99,i19_150_R.jpg,d,150,yc2345,001,2020-04-14_10h11.36.179,MentalRotationFinal,3.1.2,60
s,1,7.447000027,1,0,100,54,1,99,i25_50.jpg,s,50,yc2345,001,2020-04-14_10h11.36.179,MentalRotationFinal,3.1.2,60
d,1,6.946000099,1,0,100,5,1,99,i3_50_R.jpg,d,50,yc2345,001,2020-04-14_10h11.36.179,MentalRotationFinal,3.1.2,60
d,1,7.444999933,1,0,100,82,1,99,i38_100_R.jpg,d,100,yc2345,001,2020-04-14_10h11.36.179,MentalRotationFinal,3.1.2,60
s,1,10.0999999,1,0,100,83,1,99,i38_150.jpg,s,150,yc2345,001,2020-04-14_10h11.36.179,MentalRotationFinal,3.1.2,60
d,0,10.34599996,1,0,100,56,1,99,i26_50.jpg,s,50,yc2345,001,2020-04-14_10h11.36.179,MentalRotationFinal,3.1.2,60
d,1,11.27900004,1,0,100,10,1,99,i5_50_R.jpg,d,50,yc2345,001,2020-04-14_10h11.36.179,MentalRotationFinal,3.1.2,60
s,1,13.21399999,1,0,100,38,1,99,i18_50.jpg,s,50,yc2345,001,2020-04-14_10h11.36.179,MentalRotationFinal,3.1.2,60
d,0,23.53600001,1,0,100,68,1,99,i31_150.jpg,s,150,yc2345,001,2020-04-14_10h11.36.179,MentalRotationFinal,3.1.2,60
d,1,27.32599998,1,0,100,91,1,99,i42_100_R.jpg,d,100,yc2345,001,2020-04-14_10h11.36.179,MentalRotationFinal,3.1.2,60
d,1,6.061000109,1,0,100,25,1,99,i12_50_R.jpg,d,50,yc2345,001,2020-04-14_10h11.36.179,MentalRotationFinal,3.1.2,60
s,1,4.144000053,1,0,100,53,1,99,i25_0.jpg,s,0,yc2345,001,2020-04-14_10h11.36.179,MentalRotationFinal,3.1.2,60
s,1,8.710000038,1,0,100,49,1,99,i23_50.jpg,s,50,yc2345,001,2020-04-14_10h11.36.179,MentalRotationFinal,3.1.2,60
s,1,13.27699995,1,0,100,65,1,99,i30_50.jpg,s,50,yc2345,001,2020-04-14_10h11.36.179,MentalRotationFinal,3.1.2,60
d,1,27.0480001,1,0,100,67,1,99,i31_100_R.jpg,d,100,yc2345,001,2020-04-14_10h11.36.179,MentalRotationFinal,3.1.2,60
d,1,24.13000011,1,0,100,73,1,99,i34_100_R.jpg,d,100,yc2345,001,2020-04-14_10h11.36.179,MentalRotationFinal,3.1.2,60
s,1,10.86099982,1,0,100,64,1,99,i29_150.jpg,s,150,yc2345,001,2020-04-14_10h11.36.179,MentalRotationFinal,3.1.2,60
d,1,19.59399986,1,0,100,28,1,99,i13_150_R.jpg,d,150,yc2345,001,2020-04-14_10h11.36.179,MentalRotationFinal,3.1.2,60
s,1,17.79399991,1,0,100,86,1,99,i39_150.jpg,s,150,yc2345,001,2020-04-14_10h11.36.179,MentalRotationFinal,3.1.2,60
d,1,15.5,1,0,100,31,1,99,i14_150_R.jpg,d,150,yc2345,001,2020-04-14_10h11.36.179,MentalRotationFinal,3.1.2,60
d,1,11.39600015,1,0,100,35,1,99,i16_150_R.jpg,d,150,yc2345,001,2020-04-14_10h11.36.179,MentalRotationFinal,3.1.2,60
d,1,21.22799993,1,0,100,87,1,99,i40_100_R.jpg,d,100,yc2345,001,2020-04-14_10h11.36.179,MentalRotationFinal,3.1.2,60
s,1,6.465999842,1,0,100,41,1,99,i19_50.jpg,s,50,yc2345,001,2020-04-14_10h11.36.179,MentalRotationFinal,3.1.2,60
d,1,17.46300006,1,0,100,48,1,99,i22_150_R.jpg,d,150,yc2345,001,2020-04-14_10h11.36.179,MentalRotationFinal,3.1.2,60
s,1,11.11299992,1,0,100,15,1,99,i7_100.jpg,s,100,yc2345,001,2020-04-14_10h11.36.179,MentalRotationFinal,3.1.2,60
s,1,3.511000156,1,0,100,94,1,99,i44_0.jpg,s,0,yc2345,001,2020-04-14_10h11.36.179,MentalRotationFinal,3.1.2,60
s,1,34.75,1,0,100,22,1,99,i10_100.jpg,s,100,yc2345,001,2020-04-14_10h11.36.179,MentalRotationFinal,3.1.2,60
d,1,7.980000019,1,0,100,32,1,99,i15_50_R.jpg,d,50,yc2345,001,2020-04-14_10h11.36.179,MentalRotationFinal,3.1.2,60
s,1,16.7809999,1,0,100,99,1,99,i48_100.jpg,s,100,yc2345,001,2020-04-14_10h11.36.179,MentalRotationFinal,3.1.2,60
s,1,15.37100005,1,0,100,26,1,99,i12_100.jpg,s,100,yc2345,001,2020-04-14_10h11.36.179,MentalRotationFinal,3.1.2,60
s,1,3.562000036,1,0,100,62,1,99,i29_0.jpg,s,0,yc2345,001,2020-04-14_10h11.36.179,MentalRotationFinal,3.1.2,60
d,1,9.361000061,1,0,100,52,1,99,i24_150_R.jpg,d,150,yc2345,001,2020-04-14_10h11.36.179,MentalRotationFinal,3.1.2,60
s,1,10.4150002,1,0,100,90,1,99,i41_150.jpg,s,150,yc2345,001,2020-04-14_10h11.36.179,MentalRotationFinal,3.1.2,60
s,1,16.01399994,1,0,100,77,1,99,i35_150.jpg,s,150,yc2345,001,2020-04-14_10h11.36.179,MentalRotationFinal,3.1.2,60
d,1,9.645999908,1,0,100,76,1,99,i35_100_R.jpg,d,100,yc2345,001,2020-04-14_10h11.36.179,MentalRotationFinal,3.1.2,60
d,0,66.12899995,1,0,100,79,1,99,i36_150.jpg,s,150,yc2345,001,2020-04-14_10h11.36.179,MentalRotationFinal,3.1.2,60
d,1,29.07999992,1,0,100,16,1,99,i8_50_R.jpg,d,50,yc2345,001,2020-04-14_10h11.36.179,MentalRotationFinal,3.1.2,60
s,1,3.579999924,1,0,100,34,1,99,i16_50.jpg,s,50,yc2345,001,2020-04-14_10h11.36.179,MentalRotationFinal,3.1.2,60
s,1,10.47999978,1,0,100,24,1,99,i11_100.jpg,s,100,yc2345,001,2020-04-14_10h11.36.179,MentalRotationFinal,3.1.2,60
d,1,12.81399989,1,0,100,95,1,99,i44_100_R.jpg,d,100,yc2345,001,2020-04-14_10h11.36.179,MentalRotationFinal,3.1.2,60
s,1,3.253999949,1,0,100,0,1,99,i1_0.jpg,s,0,yc2345,001,2020-04-14_10h11.36.179,MentalRotationFinal,3.1.2,60
d,1,31.78200006,1,0,100,96,1,99,i45_100_R.jpg,d,100,yc2345,001,2020-04-14_10h11.36.179,MentalRotationFinal,3.1.2,60
s,1,9.710000038,1,0,100,61,1,99,i28_150.jpg,s,150,yc2345,001,2020-04-14_10h11.36.179,MentalRotationFinal,3.1.2,60
s,1,14.046,1,0,100,11,1,99,i5_100.jpg,s,100,yc2345,001,2020-04-14_10h11.36.179,MentalRotationFinal,3.1.2,60
s,1,2.030999899,1,0,100,9,1,99,i5_0.jpg,s,0,yc2345,001,2020-04-14_10h11.36.179,MentalRotationFinal,3.1.2,60
d,1,17.72900009,1,0,100,44,1,99,i20_150_R.jpg,d,150,yc2345,001,2020-04-14_10h11.36.179,MentalRotationFinal,3.1.2,60
d,1,14.12999988,1,0,100,37,1,99,i17_150_R.jpg,d,150,yc2345,001,2020-04-14_10h11.36.179,MentalRotationFinal,3.1.2,60
d,1,34.7980001,1,0,100,39,1,99,i18_150_R.jpg,d,150,yc2345,001,2020-04-14_10h11.36.179,MentalRotationFinal,3.1.2,60
d,1,8.52699995,1,0,100,14,1,99,i7_50_R.jpg,d,50,yc2345,001,2020-04-14_10h11.36.179,MentalRotationFinal,3.1.2,60
s,1,7.263000011,1,0,100,2,1,99,i1_100.jpg,s,100,yc2345,001,2020-04-14_10h11.36.179,MentalRotationFinal,3.1.2,60
s,1,10.36500001,1,0,100,88,1,99,i40_150.jpg,s,150,yc2345,001,2020-04-14_10h11.36.179,MentalRotationFinal,3.1.2,60
s,1,1.994999886,1,0,100,40,1,99,i19_0.jpg,s,0,yc2345,001,2020-04-14_10h11.36.179,MentalRotationFinal,3.1.2,60
d,1,9.829999924,1,0,100,3,1,99,i2_50_R.jpg,d,50,yc2345,001,2020-04-14_10h11.36.179,MentalRotationFinal,3.1.2,60
s,1,8.378999949,1,0,100,20,1,99,i9_100.jpg,s,100,yc2345,001,2020-04-14_10h11.36.179,MentalRotationFinal,3.1.2,60
s,1,7.579999924,1,0,100,6,1,99,i3_100.jpg,s,100,yc2345,001,2020-04-14_10h11.36.179,MentalRotationFinal,3.1.2,60
d,1,18.01399994,1,0,100,50,1,99,i23_150_R.jpg,d,150,yc2345,001,2020-04-14_10h11.36.179,MentalRotationFinal,3.1.2,60
s,1,5.25,1,0,100,97,1,99,i46_100.jpg,s,100,yc2345,001,2020-04-14_10h11.36.179,MentalRotationFinal,3.1.2,60
d,1,4.597000122,1,0,100,19,1,99,i9_50_R.jpg,d,50,yc2345,001,2020-04-14_10h11.36.179,MentalRotationFinal,3.1.2,60
s,1,16.21399999,1,0,100,75,1,99,i35_0.jpg,s,0,yc2345,001,2020-04-14_10h11.36.179,MentalRotationFinal,3.1.2,60
s,1,8.963999987,1,0,100,43,1,99,i20_50.jpg,s,50,yc2345,001,2020-04-14_10h11.36.179,MentalRotationFinal,3.1.2,60
d,1,11.94599986,1,0,100,80,1,99,i37_100_R.jpg,d,100,yc2345,001,2020-04-14_10h11.36.179,MentalRotationFinal,3.1.2,60
s,1,14.69699979,1,0,100,51,1,99,i24_50.jpg,s,50,yc2345,001,2020-04-14_10h11.36.179,MentalRotationFinal,3.1.2,60
d,1,34.97900009,1,0,100,93,1,99,i43_100_R.jpg,d,100,yc2345,001,2020-04-14_10h11.36.179,MentalRotationFinal,3.1.2,60
s,1,2.415999889,1,0,100,45,1,99,i21_50.jpg,s,50,yc2345,001,2020-04-14_10h11.36.179,MentalRotationFinal,3.1.2,60
d,0,10.84899998,1,0,100,74,1,99,i34_150.jpg,s,150,yc2345,001,2020-04-14_10h11.36.179,MentalRotationFinal,3.1.2,60
d,0,4.763999939,1,0,100,70,1,99,i32_150.jpg,s,150,yc2345,001,2020-04-14_10h11.36.179,MentalRotationFinal,3.1.2,60
d,0,5.713999987,1,0,100,17,1,99,i8_100.jpg,s,100,yc2345,001,2020-04-14_10h11.36.179,MentalRotationFinal,3.1.2,60
d,0,6.579999924,1,0,100,72,1,99,i33_150.jpg,s,150,yc2345,001,2020-04-14_10h11.36.179,MentalRotationFinal,3.1.2,60
d,0,0.680000067,1,0,100,98,1,99,i47_100.jpg,s,100,yc2345,001,2020-04-14_10h11.36.179,MentalRotationFinal,3.1.2,60
d,0,0.278999805,1,0,100,60,1,99,i28_50.jpg,s,50,yc2345,001,2020-04-14_10h11.36.179,MentalRotationFinal,3.1.2,60
d,0,0.144999981,1,0,100,8,1,99,i4_100.jpg,s,100,yc2345,001,2020-04-14_10h11.36.179,MentalRotationFinal,3.1.2,60
d,0,0.109999895,1,0,100,81,1,99,i37_150.jpg,s,150,yc2345,001,2020-04-14_10h11.36.179,MentalRotationFinal,3.1.2,60
d,1,0.112999916,1,0,100,71,1,99,i33_100_R.jpg,d,100,yc2345,001,2020-04-14_10h11.36.179,MentalRotationFinal,3.1.2,60
d,0,0.110000134,1,0,100,63,1,99,i29_50.jpg,s,50,yc2345,001,2020-04-14_10h11.36.179,MentalRotationFinal,3.1.2,60
d,1,0.127999783,1,0,100,12,1,99,i6_50_R.jpg,d,50,yc2345,001,2020-04-14_10h11.36.179,MentalRotationFinal,3.1.2,60
d,1,0.131999969,1,0,100,1,1,99,i1_50_R.jpg,d,50,yc2345,001,2020-04-14_10h11.36.179,MentalRotationFinal,3.1.2,60
d,1,0.128000021,1,0,100,89,1,99,i41_100_R.jpg,d,100,yc2345,001,2020-04-14_10h11.36.179,MentalRotationFinal,3.1.2,60
d,0,0.128000021,1,0,100,29,1,99,i14_0.jpg,s,0,yc2345,001,2020-04-14_10h11.36.179,MentalRotationFinal,3.1.2,60
d,0,0.128999949,1,0,100,47,1,99,i22_50.jpg,s,50,yc2345,001,2020-04-14_10h11.36.179,MentalRotationFinal,3.1.2,60
d,0,0.110999823,1,0,100,36,1,99,i17_50.jpg,s,50,yc2345,001,2020-04-14_10h11.36.179,MentalRotationFinal,3.1.2,60
d,1,0.128000021,1,0,100,30,1,99,i14_50_R.jpg,d,50,yc2345,001,2020-04-14_10h11.36.179,MentalRotationFinal,3.1.2,60
d,0,0.128999949,1,0,100,18,1,99,i9_0.jpg,s,0,yc2345,001,2020-04-14_10h11.36.179,MentalRotationFinal,3.1.2,60
d,1,0.146999836,1,0,100,57,1,99,i26_150_R.jpg,d,150,yc2345,001,2020-04-14_10h11.36.179,MentalRotationFinal,3.1.2,60
d,1,0.114000082,1,0,100,23,1,99,i11_50_R.jpg,d,50,yc2345,001,2020-04-14_10h11.36.179,MentalRotationFinal,3.1.2,60
d,1,0.161000013,1,0,100,55,1,99,i25_150_R.jpg,d,150,yc2345,001,2020-04-14_10h11.36.179,MentalRotationFinal,3.1.2,60
d,1,0.111000061,1,0,100,33,1,99,i15_150_R.jpg,d,150,yc2345,001,2020-04-14_10h11.36.179,MentalRotationFinal,3.1.2,60
d,0,0.11500001,1,0,100,66,1,99,i30_150.jpg,s,150,yc2345,001,2020-04-14_10h11.36.179,MentalRotationFinal,3.1.2,60
d,0,0.14199996,1,0,100,13,1,99,i6_100.jpg,s,100,yc2345,001,2020-04-14_10h11.36.179,MentalRotationFinal,3.1.2,60
d,0,0.128000021,1,0,100,58,1,99,i27_50.jpg,s,50,yc2345,001,2020-04-14_10h11.36.179,MentalRotationFinal,3.1.2,60
